Processed,Time(h),Time(m),Time(s),Time(ms),Delt,AccX,AccY,AccZ,GyroX,GyroY,GyroZ,MagX,MagY,MagZ,PCTimestamp
1,1,1,6,267,10,0.015625,-0.01220703125,0.986328125,0.0,-0.06103515625,0.06103515625,5.829626373626155,-4.753064713064759,-3.904410256410756,1687593775.071322
2,1,1,6,277,10,0.00439453125,-0.0087890625,1.0009765625,-0.06103515625,0.06103515625,0.06103515625,4.330236874236661,8.741440781440701,8.090705738705196,1687593775.0783203
3,1,1,6,287,10,0.0009765625,-0.00390625,0.9970703125,0.1220703125,0.30517578125,-0.06103515625,-19.659995115995333,-7.751843711843776,3.5925372405367284,1687593775.0923207
4,1,1,6,297,10,0.01416015625,-0.01806640625,1.00439453125,-0.06103515625,0.42724609375,0.1220703125,4.330236874236661,1.2444932844932168,0.5937582417577119,1687593775.1063206
5,1,1,6,307,10,-0.00439453125,-0.0087890625,1.0,0.0,0.3662109375,0.0,-1.6673211233213436,-4.753064713064759,3.5925372405367284,1687593775.1073213
6,1,1,6,317,10,0.00390625,-0.00390625,1.02685546875,0.244140625,0.42724609375,0.0,-4.666100122100339,-7.751843711843776,3.5925372405367284,1687593775.119349
7,1,1,6,327,10,0.00439453125,-0.0078125,1.0244140625,0.18310546875,0.48828125,-0.1220703125,-0.16793162393184247,4.243272283272233,-2.405020757021248,1687593775.1273577
8,1,1,6,337,10,0.00146484375,-0.0029296875,1.02734375,0.18310546875,0.54931640625,0.0,-10.663658119658336,4.243272283272233,-8.402578754579281,1687593775.1473563
9,1,1,6,347,10,0.00146484375,-0.0048828125,1.005859375,0.06103515625,0.54931640625,0.1220703125,-1.6673211233213436,5.742661782661685,-0.9056312576317396,1687593775.150356
10,1,1,6,357,10,0.00146484375,-0.00732421875,0.9970703125,0.06103515625,0.1220703125,0.0,-9.164268620268835,2.743882783882725,9.590095238094705,1687593775.1513853
11,1,1,6,367,10,0.01171875,-0.0166015625,1.001953125,0.06103515625,0.1220703125,0.0,-4.666100122100339,-7.751843711843776,9.590095238094705,1687593775.169618
12,1,1,6,377,10,0.009765625,-0.0107421875,0.998046875,0.0,0.18310546875,0.0,14.825963369963155,8.741440781440701,0.5937582417577119,1687593775.1836178
13,1,1,6,387,10,0.00439453125,-0.0166015625,1.00244140625,-0.06103515625,0.0,-0.06103515625,13.326573870573654,2.743882783882725,-3.904410256410756,1687593775.192617
14,1,1,6,397,10,0.0126953125,-0.0107421875,0.9951171875,-0.18310546875,-0.244140625,0.0,-3.1667106227108377,1.2444932844932168,0.5937582417577119,1687593775.2196467
15,1,1,6,407,10,-0.00146484375,-0.013671875,0.99462890625,-0.18310546875,-0.244140625,-0.06103515625,13.326573870573654,-4.753064713064759,-3.904410256410756,1687593775.2216175
16,1,1,6,417,10,0.001953125,-0.0126953125,0.98388671875,-0.06103515625,-0.42724609375,-0.1220703125,5.829626373626155,10.24083028083021,-3.904410256410756,1687593775.2226157
17,1,1,6,427,10,0.01025390625,-0.0166015625,0.994140625,-0.1220703125,-0.18310546875,-0.1220703125,13.326573870573654,-0.25489621489629144,-0.9056312576317396,1687593775.2356164
18,1,1,6,437,10,0.00146484375,-0.01123046875,0.99560546875,0.1220703125,0.0,0.06103515625,-16.661216117216334,-9.251233211233284,-5.403799755800264,1687593775.2506177
19,1,1,6,447,10,0.00830078125,-0.00830078125,0.9892578125,-0.1220703125,-0.18310546875,0.0,19.324131868131644,-0.25489621489629144,-11.401357753358297,1687593775.2516172
20,1,1,6,457,10,0.00634765625,0.0029296875,0.998046875,-0.06103515625,-0.18310546875,0.0,4.330236874236661,-1.7542857142857997,5.091926739926237,1687593775.278656
21,1,1,6,467,10,0.0078125,-0.0048828125,0.9833984375,0.0,0.06103515625,-0.06103515625,7.329015873015656,-6.252454212454268,0.5937582417577119,1687593775.2796175
22,1,1,6,477,10,0.00732421875,-0.0048828125,1.01171875,0.0,0.30517578125,0.18310546875,-3.1667106227108377,-6.252454212454268,5.091926739926237,1687593775.2816179
23,1,1,6,487,10,0.00146484375,0.00341796875,1.01220703125,0.1220703125,0.18310546875,0.0,4.330236874236661,-13.749401709401809,0.5937582417577119,1687593775.2926178
24,1,1,6,497,10,0.0029296875,-0.009765625,1.0146484375,0.18310546875,0.3662109375,0.0,4.330236874236661,8.741440781440701,15.587653235652738,1687593775.3026161
25,1,1,6,507,10,0.00439453125,-0.00341796875,1.0205078125,0.18310546875,0.30517578125,0.0,-4.666100122100339,2.743882783882725,3.5925372405367284,1687593775.3156173
26,1,1,6,517,10,-0.001953125,-0.0107421875,1.02685546875,0.0,0.6103515625,0.18310546875,7.329015873015656,1.2444932844932168,-5.403799755800264,1687593775.3176165
27,1,1,6,527,10,0.00634765625,-0.0126953125,1.02587890625,0.30517578125,0.48828125,0.0,2.83084737484716,2.743882783882725,-6.903189255189773,1687593775.329616
28,1,1,6,537,10,0.00927734375,-0.00146484375,1.01611328125,0.0,0.67138671875,0.0,4.330236874236661,4.243272283272233,-8.402578754579281,1687593775.3716156
29,1,1,6,547,10,-0.00146484375,-0.00537109375,1.0029296875,0.06103515625,0.3662109375,-0.18310546875,8.828405372405157,-10.750622710622793,3.5925372405367284,1687593775.3736162
30,1,1,6,557,10,0.005859375,-0.0087890625,1.00439453125,0.18310546875,0.54931640625,0.0,-1.6673211233213436,-4.753064713064759,-11.401357753358297,1687593775.3756168
31,1,1,6,567,10,0.00927734375,-0.00927734375,1.00341796875,0.1220703125,0.42724609375,0.1220703125,-10.663658119658336,8.741440781440701,-2.405020757021248,1687593775.3766177
32,1,1,6,577,10,0.00634765625,-0.0185546875,1.01708984375,0.1220703125,0.18310546875,0.0,-6.16548962148984,-6.252454212454268,-5.403799755800264,1687593775.3916163
33,1,1,6,587,10,0.00537109375,-0.0068359375,1.0029296875,0.0,0.1220703125,0.06103515625,16.325352869352656,-7.751843711843776,-0.9056312576317396,1687593775.3936183
34,1,1,6,597,10,0.00341796875,-0.00244140625,0.9970703125,-0.06103515625,0.0,0.06103515625,2.83084737484716,-0.25489621489629144,3.5925372405367284,1687593775.4066162
35,1,1,6,607,10,0.021484375,-0.00244140625,0.9931640625,0.0,0.0,0.0,-1.6673211233213436,5.742661782661685,-11.401357753358297,1687593775.407616
36,1,1,6,617,10,0.01318359375,-0.025390625,0.98779296875,0.0,-0.244140625,0.0,5.829626373626155,-4.753064713064759,-11.401357753358297,1687593775.419616
37,1,1,6,627,10,0.01513671875,-0.00732421875,0.986328125,-0.18310546875,-0.06103515625,0.06103515625,5.829626373626155,10.24083028083021,3.5925372405367284,1687593775.4336474
38,1,1,6,637,10,0.0166015625,-0.013671875,0.97998046875,-0.06103515625,-0.18310546875,0.0,-0.16793162393184247,4.243272283272233,-5.403799755800264,1687593775.439636
39,1,1,6,647,10,0.009765625,-0.00927734375,0.97119140625,-0.1220703125,-0.244140625,0.18310546875,-4.666100122100339,2.743882783882725,3.5925372405367284,1687593775.4687712
40,1,1,6,657,10,0.0009765625,-0.00830078125,0.9677734375,-0.1220703125,-0.244140625,0.1220703125,-10.663658119658336,-6.252454212454268,-5.403799755800264,1687593775.469772
41,1,1,6,667,10,-0.00146484375,-0.01025390625,1.001953125,-0.1220703125,-0.1220703125,0.0,7.329015873015656,4.243272283272233,-2.405020757021248,1687593775.4896553
42,1,1,6,677,10,0.00537109375,-0.00927734375,1.00341796875,0.0,0.0,0.0,-1.6673211233213436,5.742661782661685,-0.9056312576317396,1687593775.4906554
43,1,1,6,687,10,0.00048828125,-0.00341796875,1.00439453125,-0.18310546875,0.0,0.0,-3.1667106227108377,-6.252454212454268,0.5937582417577119,1687593775.4956555
44,1,1,6,697,10,0.00830078125,-0.00732421875,0.99658203125,0.0,0.06103515625,0.0,8.828405372405157,10.24083028083021,6.591316239315745,1687593775.4966562
45,1,1,6,707,10,0.00537109375,-0.0048828125,1.01123046875,0.1220703125,0.1220703125,0.0,-6.16548962148984,4.243272283272233,5.091926739926237,1687593775.5244389
46,1,1,6,717,10,0.00390625,-0.0029296875,1.02001953125,0.1220703125,0.3662109375,-0.06103515625,-12.163047619047838,-10.750622710622793,3.5925372405367284,1687593775.527438
47,1,1,6,727,10,0.00830078125,-0.005859375,1.00830078125,0.0,0.3662109375,0.244140625,-0.16793162393184247,-9.251233211233284,8.090705738705196,1687593775.5284383
48,1,1,6,737,10,0.0048828125,-0.00244140625,1.0205078125,0.18310546875,0.42724609375,0.1220703125,-4.666100122100339,-7.751843711843776,-14.400136752137314,1687593775.5454392
49,1,1,6,747,10,-0.00439453125,-0.01171875,0.99365234375,0.1220703125,0.42724609375,-0.06103515625,10.327794871794651,-1.7542857142857997,0.5937582417577119,1687593775.5484385
50,1,1,6,757,10,0.00390625,-0.013671875,1.0185546875,0.0,0.30517578125,0.0,-1.6673211233213436,-4.753064713064759,-6.903189255189773,1687593775.56344
51,1,1,6,767,10,0.005859375,-0.0166015625,1.00830078125,0.0,0.3662109375,0.0,-9.164268620268835,-10.750622710622793,-11.401357753358297,1687593775.5644379
52,1,1,6,777,10,0.005859375,-0.01123046875,1.0,0.0,0.18310546875,0.0,10.327794871794651,4.243272283272233,-15.899526251526709,1687593775.57644
53,1,1,6,787,10,0.00537109375,-0.0185546875,0.984375,0.0,0.06103515625,-0.18310546875,-3.1667106227108377,-19.746959706959785,-15.899526251526709,1687593775.6174383
54,1,1,6,797,10,0.0078125,-0.00390625,0.982421875,-0.1220703125,-0.244140625,-0.06103515625,-0.16793162393184247,14.738998778998734,-8.402578754579281,1687593775.619712
55,1,1,6,807,10,0.0107421875,-0.00390625,0.9755859375,-0.1220703125,-0.1220703125,-0.06103515625,-9.164268620268835,-0.25489621489629144,3.5925372405367284,1687593775.6207108
56,1,1,6,817,10,0.00830078125,-0.01513671875,0.97802734375,-0.06103515625,-0.244140625,0.0,-12.163047619047838,10.24083028083021,-3.904410256410756,1687593775.6327121
57,1,1,6,827,10,0.0009765625,-0.01123046875,0.98583984375,0.0,-0.3662109375,-0.06103515625,-12.163047619047838,-4.753064713064759,-6.903189255189773,1687593775.63971
58,1,1,6,837,10,-0.00439453125,-0.00732421875,0.96875,-0.1220703125,-0.244140625,0.1220703125,-3.1667106227108377,-6.252454212454268,5.091926739926237,1687593775.6407099
59,1,1,6,847,10,0.00048828125,-0.0068359375,0.984375,-0.18310546875,-0.1220703125,-0.06103515625,4.330236874236661,8.741440781440701,0.5937582417577119,1687593775.6527102
60,1,1,6,857,10,0.0029296875,-0.0126953125,0.98583984375,0.0,-0.30517578125,0.0,5.829626373626155,-10.750622710622793,-3.904410256410756,1687593775.6907103
61,1,1,6,867,10,0.0068359375,-0.0068359375,0.98828125,0.0,0.0,0.0,-9.164268620268835,-7.751843711843776,9.590095238094705,1687593775.6917107
62,1,1,6,877,10,0.0,-0.00830078125,1.0009765625,0.0,0.1220703125,0.0,2.83084737484716,-0.25489621489629144,-0.9056312576317396,1687593775.6937106
63,1,1,6,887,10,0.0068359375,-0.0048828125,0.9990234375,0.0,0.244140625,0.06103515625,-3.1667106227108377,1.2444932844932168,8.090705738705196,1687593775.7057538
64,1,1,6,897,10,0.001953125,-0.00537109375,1.00537109375,0.0,0.30517578125,0.06103515625,2.83084737484716,5.742661782661685,-3.904410256410756,1687593775.7137122
65,1,1,6,907,10,0.0,0.0048828125,1.001953125,0.1220703125,0.3662109375,0.0,7.329015873015656,-6.252454212454268,0.5937582417577119,1687593775.7147126
66,1,1,6,917,10,-0.00537109375,-0.00537109375,1.01318359375,0.1220703125,0.48828125,0.1220703125,-13.662437118437339,-6.252454212454268,-2.405020757021248,1687593775.7277102
67,1,1,6,927,10,0.0029296875,-0.0048828125,1.01953125,0.18310546875,0.30517578125,-0.1220703125,-3.1667106227108377,4.243272283272233,-2.405020757021248,1687593775.7287107
68,1,1,6,937,10,0.00341796875,-0.00830078125,1.01025390625,0.0,0.42724609375,0.1220703125,-6.16548962148984,-6.252454212454268,-8.402578754579281,1687593775.7407098
69,1,1,6,947,10,0.00390625,-0.00439453125,1.00830078125,0.18310546875,0.30517578125,0.0,-0.16793162393184247,14.738998778998734,5.091926739926237,1687593775.7827103
70,1,1,6,957,10,0.0048828125,-0.0185546875,1.0146484375,0.1220703125,0.48828125,0.0,-3.1667106227108377,-1.7542857142857997,-12.900747252747806,1687593775.78471
71,1,1,6,967,10,0.00927734375,-0.00537109375,1.005859375,0.1220703125,0.6103515625,0.1220703125,2.83084737484716,-4.753064713064759,-6.903189255189773,1687593775.7857108
72,1,1,6,977,10,-0.00146484375,-0.0068359375,1.001953125,0.18310546875,0.30517578125,0.0,4.330236874236661,1.2444932844932168,-2.405020757021248,1687593775.7889626
73,1,1,6,987,10,0.0029296875,-0.005859375,1.0068359375,0.0,0.1220703125,0.0,-1.6673211233213436,-4.753064713064759,3.5925372405367284,1687593775.8049698
74,1,1,6,997,10,0.0107421875,-0.00439453125,0.9775390625,0.0,0.06103515625,0.06103515625,-12.163047619047838,-7.751843711843776,9.590095238094705,1687593775.8059707
75,1,1,7,7,10,-0.00244140625,-0.0087890625,0.982421875,0.0,0.0,-0.06103515625,-9.164268620268835,-4.753064713064759,-6.903189255189773,1687593775.8109696
76,1,1,7,17,10,0.01025390625,-0.01025390625,1.0078125,-0.06103515625,-0.1220703125,0.1220703125,-6.16548962148984,1.2444932844932168,-2.405020757021248,1687593775.8419716
77,1,1,7,27,10,-0.00244140625,-0.01318359375,0.9873046875,0.0,-0.1220703125,0.0,5.829626373626155,-15.24879120879126,-6.903189255189773,1687593775.8439703
78,1,1,7,37,10,0.00390625,-0.005859375,0.9736328125,-0.18310546875,-0.06103515625,-0.06103515625,-4.666100122100339,-0.25489621489629144,-3.904410256410756,1687593775.8569708
79,1,1,7,47,10,0.0029296875,-0.00732421875,0.98486328125,0.0,0.0,0.0,4.330236874236661,-1.7542857142857997,-5.403799755800264,1687593775.8579712
80,1,1,7,57,10,0.00634765625,-0.0146484375,0.9833984375,-0.1220703125,-0.18310546875,-0.1220703125,-1.6673211233213436,-4.753064713064759,-6.903189255189773,1687593775.8659697
81,1,1,7,67,10,0.0078125,-0.0107421875,0.97900390625,0.0,-0.18310546875,-0.06103515625,5.829626373626155,5.742661782661685,6.591316239315745,1687593775.8672676
82,1,1,7,77,10,-0.00537109375,-0.01025390625,0.99462890625,-0.1220703125,0.0,-0.06103515625,13.326573870573654,-4.753064713064759,-6.903189255189773,1687593775.8942747
83,1,1,7,87,10,0.00390625,-0.00927734375,0.9833984375,-0.06103515625,0.0,-0.18310546875,-1.6673211233213436,-0.25489621489629144,-0.9056312576317396,1687593775.8962743
84,1,1,7,97,10,-0.00146484375,-0.0087890625,1.005859375,-0.06103515625,0.1220703125,-0.06103515625,4.330236874236661,-1.7542857142857997,-5.403799755800264,1687593775.9192762
85,1,1,7,107,10,-0.001953125,-0.01123046875,1.021484375,0.06103515625,0.18310546875,0.0,-6.16548962148984,4.243272283272233,15.587653235652738,1687593775.9302757
86,1,1,7,117,10,0.00341796875,-0.015625,1.0224609375,0.0,0.244140625,-0.1220703125,2.83084737484716,-4.753064713064759,-14.400136752137314,1687593775.932274
87,1,1,7,127,10,-0.00244140625,-0.00537109375,1.0146484375,0.18310546875,0.30517578125,0.0,7.329015873015656,-9.251233211233284,8.090705738705196,1687593775.9332755
88,1,1,7,137,10,0.00537109375,-0.001953125,1.02099609375,0.30517578125,0.244140625,0.0,5.829626373626155,-4.753064713064759,-14.400136752137314,1687593775.9602747
89,1,1,7,147,10,0.00341796875,-0.01318359375,1.009765625,0.18310546875,0.244140625,0.0,-10.663658119658336,-6.252454212454268,-8.402578754579281,1687593775.9622746
90,1,1,7,157,10,0.00634765625,-0.0087890625,1.02001953125,0.0,0.48828125,0.0,-0.16793162393184247,4.243272283272233,5.091926739926237,1687593775.963274
91,1,1,7,167,10,0.00390625,-0.0126953125,1.00048828125,0.06103515625,0.3662109375,0.1220703125,-12.163047619047838,-10.750622710622793,-6.903189255189773,1687593775.9762745
92,1,1,7,177,10,0.005859375,-0.01025390625,1.00927734375,0.1220703125,0.3662109375,0.06103515625,7.329015873015656,-9.251233211233284,0.5937582417577119,1687593775.9902754
93,1,1,7,187,10,0.00048828125,-0.00390625,1.00048828125,0.0,0.06103515625,0.06103515625,13.326573870573654,5.742661782661685,-6.903189255189773,1687593775.9912748
94,1,1,7,197,10,0.0029296875,-0.00244140625,0.99951171875,0.0,0.0,-0.1220703125,-12.163047619047838,-7.751843711843776,-17.398915750916217,1687593775.9982755
95,1,1,7,207,10,0.01220703125,-0.00732421875,0.99072265625,-0.06103515625,-0.1220703125,0.06103515625,-3.1667106227108377,-1.7542857142857997,-8.402578754579281,1687593776.0142741
96,1,1,7,217,10,0.00927734375,-0.00244140625,0.9931640625,-0.06103515625,0.0,0.1220703125,8.828405372405157,-4.753064713064759,-6.903189255189773,1687593776.0432744
97,1,1,7,227,10,0.00537109375,-0.0126953125,0.97412109375,-0.244140625,-0.244140625,0.1220703125,-3.1667106227108377,-16.74818070818077,-2.405020757021248,1687593776.044274
98,1,1,7,237,10,0.005859375,-0.0107421875,0.9716796875,0.0,-0.30517578125,0.06103515625,-10.663658119658336,1.2444932844932168,5.091926739926237,1687593776.0492747
99,1,1,7,247,10,0.017578125,-0.00830078125,0.99169921875,-0.18310546875,-0.30517578125,0.0,2.83084737484716,2.743882783882725,-6.903189255189773,1687593776.0502753
100,1,1,7,257,10,0.0078125,-0.01025390625,0.97265625,-0.1220703125,-0.18310546875,-0.06103515625,-3.1667106227108377,-6.252454212454268,-2.405020757021248,1687593776.0632768
101,1,1,7,267,10,0.00732421875,-0.0078125,0.9931640625,0.06103515625,0.0,0.0,-6.16548962148984,-13.749401709401809,-2.405020757021248,1687593776.076276
102,1,1,7,277,10,0.013671875,-0.0048828125,0.990234375,0.0,0.0,0.1220703125,5.829626373626155,-4.753064713064759,-0.9056312576317396,1687593776.0772746
103,1,1,7,287,10,-0.0048828125,0.0,1.001953125,0.0,0.06103515625,0.0,-1.6673211233213436,5.742661782661685,-11.401357753358297,1687593776.0982745
104,1,1,7,297,10,0.013671875,-0.00341796875,0.99951171875,-0.1220703125,0.244140625,0.0,-13.662437118437339,1.2444932844932168,-5.403799755800264,1687593776.1102748
105,1,1,7,307,10,0.00048828125,-0.005859375,1.00634765625,0.0,0.30517578125,-0.06103515625,-3.1667106227108377,14.738998778998734,-5.403799755800264,1687593776.1242754
106,1,1,7,317,10,0.0087890625,-0.013671875,1.0029296875,0.18310546875,0.3662109375,-0.06103515625,4.330236874236661,-1.7542857142857997,-2.405020757021248,1687593776.1262777
107,1,1,7,327,10,0.00732421875,-0.0107421875,1.0107421875,0.18310546875,0.244140625,-0.1220703125,-10.663658119658336,4.243272283272233,-2.405020757021248,1687593776.1331701
108,1,1,7,337,10,0.0009765625,-0.01318359375,1.009765625,0.18310546875,0.48828125,0.0,-3.1667106227108377,-1.7542857142857997,0.5937582417577119,1687593776.1621702
109,1,1,7,347,10,0.0048828125,-0.00927734375,1.02001953125,0.06103515625,0.54931640625,0.0,-1.6673211233213436,-0.25489621489629144,-11.401357753358297,1687593776.165171
110,1,1,7,357,10,0.0078125,-0.00390625,1.02197265625,0.1220703125,0.6103515625,0.244140625,5.829626373626155,2.743882783882725,9.590095238094705,1687593776.1791744
111,1,1,7,367,10,-0.00048828125,-0.0087890625,1.00537109375,0.18310546875,0.54931640625,0.0,-12.163047619047838,10.24083028083021,9.590095238094705,1687593776.1801715
112,1,1,7,377,10,-0.00537109375,-0.00927734375,1.00244140625,0.0,0.3662109375,0.06103515625,-0.16793162393184247,11.740219780219718,5.091926739926237,1687593776.1931708
113,1,1,7,387,10,0.00537109375,-0.0068359375,1.00341796875,0.0,0.244140625,0.0,7.329015873015656,1.2444932844932168,5.091926739926237,1687593776.1951706
114,1,1,7,397,10,0.00830078125,-0.01025390625,1.00048828125,0.0,0.244140625,0.06103515625,-10.663658119658336,11.740219780219718,-2.405020757021248,1687593776.21517
115,1,1,7,407,10,0.001953125,-0.0078125,1.0087890625,0.1220703125,0.18310546875,0.0,-0.16793162393184247,-6.252454212454268,-2.405020757021248,1687593776.21617
116,1,1,7,417,10,0.00634765625,-0.0185546875,0.98486328125,-0.06103515625,-0.1220703125,0.0,-0.16793162393184247,8.741440781440701,5.091926739926237,1687593776.2301702
117,1,1,7,427,10,0.0029296875,-0.0029296875,1.0,0.0,-0.244140625,0.06103515625,-0.16793162393184247,1.2444932844932168,0.5937582417577119,1687593776.231171
118,1,1,7,437,10,0.01123046875,-0.0087890625,0.97216796875,-0.18310546875,-0.244140625,0.0,-3.1667106227108377,8.741440781440701,-12.900747252747806,1687593776.2431717
119,1,1,7,447,10,0.01171875,-0.0146484375,0.97900390625,-0.06103515625,-0.244140625,-0.06103515625,-0.16793162393184247,4.243272283272233,-8.402578754579281,1687593776.2721713
120,1,1,7,457,10,0.0048828125,-0.01416015625,0.98876953125,0.0,-0.18310546875,-0.06103515625,-1.6673211233213436,2.743882783882725,3.5925372405367284,1687593776.2741728
121,1,1,7,467,10,0.00146484375,-0.0068359375,0.98681640625,-0.06103515625,-0.06103515625,0.0,-3.1667106227108377,-1.7542857142857997,0.5937582417577119,1687593776.2911725
122,1,1,7,477,10,-0.00341796875,-0.01171875,0.9892578125,-0.18310546875,-0.06103515625,-0.1220703125,5.829626373626155,-0.25489621489629144,-0.9056312576317396,1687593776.2931716
123,1,1,7,487,10,0.00634765625,-0.0068359375,0.99072265625,-0.06103515625,0.06103515625,0.06103515625,-0.16793162393184247,1.2444932844932168,-2.405020757021248,1687593776.30417
124,1,1,7,497,10,0.001953125,-0.00390625,0.9853515625,0.0,0.1220703125,0.0,-10.663658119658336,-1.7542857142857997,0.5937582417577119,1687593776.3181703
125,1,1,7,507,10,0.00537109375,-0.005859375,0.998046875,0.06103515625,0.18310546875,-0.06103515625,-1.6673211233213436,-18.247570207570277,6.591316239315745,1687593776.319172
126,1,1,7,517,10,0.00390625,-0.00341796875,1.00341796875,0.0,0.48828125,-0.06103515625,4.330236874236661,-9.251233211233284,-12.900747252747806,1687593776.34817
127,1,1,7,527,10,-0.001953125,-0.0048828125,1.0,0.18310546875,0.42724609375,0.0,-4.666100122100339,-4.753064713064759,12.588874236873721,1687593776.3501713
128,1,1,7,537,10,0.0048828125,-0.013671875,1.0029296875,0.18310546875,0.42724609375,0.0,7.329015873015656,4.243272283272233,-5.403799755800264,1687593776.3511715
129,1,1,7,547,10,0.0009765625,-0.009765625,1.0107421875,0.18310546875,0.54931640625,-0.06103515625,-0.16793162393184247,1.2444932844932168,8.090705738705196,1687593776.35217
130,1,1,7,557,10,-0.0009765625,-0.0107421875,1.0146484375,0.06103515625,0.67138671875,0.0,7.329015873015656,8.741440781440701,-8.402578754579281,1687593776.3761706
131,1,1,7,567,10,-0.00146484375,-0.0048828125,1.0126953125,0.06103515625,0.48828125,-0.18310546875,10.327794871794651,-13.749401709401809,0.5937582417577119,1687593776.3771725
132,1,1,7,577,10,-0.00244140625,-0.00390625,1.00927734375,-0.06103515625,0.18310546875,0.18310546875,-1.6673211233213436,-10.750622710622793,-6.903189255189773,1687593776.3831713
133,1,1,7,587,10,0.0126953125,-0.00732421875,1.00048828125,0.0,0.18310546875,0.0,-3.1667106227108377,-1.7542857142857997,-8.402578754579281,1687593776.4041715
134,1,1,7,597,10,0.00439453125,-0.01611328125,1.0068359375,-0.06103515625,0.06103515625,0.0,2.83084737484716,2.743882783882725,-3.904410256410756,1687593776.4051702
135,1,1,7,607,10,0.00048828125,-0.0048828125,0.99951171875,0.0,0.18310546875,0.0,-4.666100122100339,2.743882783882725,-6.903189255189773,1687593776.4311702
136,1,1,7,617,10,0.00439453125,-0.017578125,1.00927734375,-0.1220703125,-0.06103515625,0.0,-6.16548962148984,-1.7542857142857997,-8.402578754579281,1687593776.4321718
137,1,1,7,627,10,0.0009765625,0.00146484375,0.9794921875,-0.244140625,-0.1220703125,-0.06103515625,-3.1667106227108377,-6.252454212454268,11.089484737484213,1687593776.4501722
138,1,1,7,637,10,0.0166015625,-0.009765625,0.9833984375,-0.1220703125,-0.3662109375,-0.1220703125,2.83084737484716,10.24083028083021,-0.9056312576317396,1687593776.4521966
139,1,1,7,647,10,0.00439453125,-0.009765625,0.97607421875,-0.1220703125,-0.30517578125,0.0,5.829626373626155,2.743882783882725,-3.904410256410756,1687593776.45317
140,1,1,7,657,10,0.0029296875,-0.01611328125,0.9833984375,-0.18310546875,-0.1220703125,0.06103515625,8.828405372405157,-15.24879120879126,-0.9056312576317396,1687593776.478171
141,1,1,7,667,10,0.00341796875,-0.01416015625,1.0029296875,-0.1220703125,-0.244140625,0.06103515625,-4.666100122100339,-0.25489621489629144,3.5925372405367284,1687593776.479171
142,1,1,7,677,10,0.00537109375,-0.01123046875,0.9990234375,-0.06103515625,-0.30517578125,0.0,5.829626373626155,-0.25489621489629144,-0.9056312576317396,1687593776.5016093
143,1,1,7,687,10,-0.0009765625,-0.00390625,0.9921875,0.0,-0.1220703125,0.06103515625,-6.16548962148984,8.741440781440701,-2.405020757021248,1687593776.504172
144,1,1,7,697,10,0.00732421875,-0.00537109375,1.0068359375,0.0,0.06103515625,0.06103515625,2.83084737484716,5.742661782661685,-6.903189255189773,1687593776.5071697
145,1,1,7,707,10,0.00390625,-0.01611328125,1.0126953125,0.1220703125,0.244140625,0.0,4.330236874236661,-1.7542857142857997,0.5937582417577119,1687593776.536172
146,1,1,7,717,10,-0.00390625,-0.0078125,0.9921875,0.06103515625,0.244140625,0.06103515625,2.83084737484716,-4.753064713064759,3.5925372405367284,1687593776.5541718
147,1,1,7,727,10,0.0009765625,-0.0205078125,1.0009765625,0.1220703125,0.30517578125,-0.06103515625,4.330236874236661,-6.252454212454268,8.090705738705196,1687593776.5551715
148,1,1,7,737,10,0.0126953125,-0.0107421875,1.00341796875,0.06103515625,0.42724609375,-0.06103515625,-0.16793162393184247,-6.252454212454268,-12.900747252747806,1687593776.5571713
149,1,1,7,747,10,-0.0009765625,-0.013671875,1.02001953125,0.18310546875,0.54931640625,-0.06103515625,4.330236874236661,14.738998778998734,-5.403799755800264,1687593776.5691705
150,1,1,7,757,10,0.001953125,-0.00341796875,1.02294921875,0.1220703125,0.54931640625,0.06103515625,4.330236874236661,-1.7542857142857997,-2.405020757021248,1687593776.5701706
151,1,1,7,767,10,-0.00341796875,-0.0087890625,1.00634765625,0.1220703125,0.30517578125,0.0,4.330236874236661,1.2444932844932168,0.5937582417577119,1687593776.5791717
152,1,1,7,777,10,0.0078125,-0.001953125,1.00146484375,0.06103515625,0.30517578125,-0.06103515625,-0.16793162393184247,11.740219780219718,-5.403799755800264,1687593776.5801702
153,1,1,7,787,10,0.001953125,-0.01171875,1.0009765625,0.18310546875,0.30517578125,0.18310546875,14.825963369963155,1.2444932844932168,-5.403799755800264,1687593776.6061716
154,1,1,7,797,10,0.01025390625,-0.0126953125,1.00732421875,0.0,0.42724609375,0.06103515625,4.330236874236661,4.243272283272233,-2.405020757021248,1687593776.60717
155,1,1,7,807,10,-0.00732421875,-0.0029296875,1.0078125,0.0,0.244140625,0.0,4.330236874236661,8.741440781440701,8.090705738705196,1687593776.6201699
156,1,1,7,817,10,0.00537109375,-0.00927734375,0.9912109375,0.0,0.0,-0.06103515625,-4.666100122100339,2.743882783882725,3.5925372405367284,1687593776.6481714
157,1,1,7,827,10,0.01708984375,0.0009765625,0.98291015625,0.0,-0.1220703125,-0.244140625,2.83084737484716,5.742661782661685,9.590095238094705,1687593776.6501708
158,1,1,7,837,10,0.015625,-0.01513671875,0.982421875,-0.1220703125,-0.30517578125,-0.1220703125,-6.16548962148984,1.2444932844932168,-2.405020757021248,1687593776.6511722
159,1,1,7,847,10,0.0107421875,-0.01220703125,0.984375,-0.06103515625,-0.1220703125,0.0,-4.666100122100339,-10.750622710622793,-0.9056312576317396,1687593776.652171
160,1,1,7,857,10,0.00146484375,-0.01123046875,0.98291015625,-0.06103515625,-0.18310546875,-0.1220703125,14.825963369963155,-1.7542857142857997,5.091926739926237,1687593776.6711721
161,1,1,7,867,10,-0.00146484375,-0.0048828125,0.9873046875,-0.244140625,-0.244140625,0.0,-15.161826617826833,5.742661782661685,-6.903189255189773,1687593776.6721723
162,1,1,7,877,10,0.00634765625,-0.00439453125,0.98193359375,0.0,-0.1220703125,0.0,5.829626373626155,-10.750622710622793,-11.401357753358297,1687593776.690172
163,1,1,7,887,10,-0.00439453125,-0.00537109375,0.9853515625,-0.06103515625,-0.18310546875,0.06103515625,2.83084737484716,2.743882783882725,-3.904410256410756,1687593776.6931705
164,1,1,7,897,10,0.015625,-0.0068359375,0.99072265625,0.0,0.0,0.0,14.825963369963155,4.243272283272233,-5.403799755800264,1687593776.7211702
165,1,1,7,907,10,-0.00048828125,-0.0078125,1.01611328125,0.0,0.30517578125,-0.1220703125,8.828405372405157,-0.25489621489629144,3.5925372405367284,1687593776.7221704
166,1,1,7,917,10,0.005859375,-0.0078125,1.005859375,0.06103515625,0.0,0.18310546875,7.329015873015656,-1.7542857142857997,-2.405020757021248,1687593776.7241702
167,1,1,7,927,10,0.0009765625,-0.01123046875,0.9970703125,0.06103515625,0.30517578125,-0.1220703125,2.83084737484716,-18.247570207570277,6.591316239315745,1687593776.7511714
168,1,1,7,937,10,0.00390625,0.00048828125,1.017578125,0.1220703125,0.48828125,0.0,-6.16548962148984,11.740219780219718,5.091926739926237,1687593776.75217
169,1,1,7,947,10,0.0078125,-0.0078125,1.00244140625,0.244140625,0.48828125,0.1220703125,-1.6673211233213436,-4.753064713064759,3.5925372405367284,1687593776.7681708
170,1,1,7,957,10,0.00390625,0.00537109375,1.01708984375,0.1220703125,0.79345703125,0.0,-6.16548962148984,4.243272283272233,-5.403799755800264,1687593776.7691703
171,1,1,7,967,10,-0.0029296875,-0.0107421875,1.00244140625,0.244140625,0.244140625,0.0,4.330236874236661,8.741440781440701,8.090705738705196,1687593776.782172
172,1,1,7,977,10,-0.0029296875,-0.01318359375,1.009765625,0.18310546875,0.42724609375,0.0,5.829626373626155,2.743882783882725,-6.903189255189773,1687593776.8031719
173,1,1,7,987,10,0.001953125,-0.01416015625,1.00732421875,0.0,0.244140625,0.0,-6.16548962148984,1.2444932844932168,5.091926739926237,1687593776.804171
174,1,1,7,997,10,0.0068359375,-0.0078125,1.009765625,0.0,0.18310546875,0.06103515625,-13.662437118437339,-1.7542857142857997,5.091926739926237,1687593776.821174
175,1,1,8,7,10,0.00732421875,-0.013671875,0.98828125,-0.06103515625,0.18310546875,0.06103515625,7.329015873015656,1.2444932844932168,-5.403799755800264,1687593776.8221712
176,1,1,8,17,10,0.01171875,-0.01318359375,0.98779296875,-0.06103515625,0.0,0.06103515625,-0.16793162393184247,4.243272283272233,0.5937582417577119,1687593776.824171
177,1,1,8,27,10,0.0126953125,-0.01806640625,0.9736328125,0.0,-0.244140625,0.0,7.329015873015656,-1.7542857142857997,-8.402578754579281,1687593776.8431723
178,1,1,8,37,10,0.01220703125,-0.0029296875,0.994140625,0.0,-0.3662109375,0.0,-3.1667106227108377,-9.251233211233284,5.091926739926237,1687593776.8531713
179,1,1,8,47,10,0.0087890625,-0.0146484375,0.99365234375,-0.1220703125,-0.06103515625,0.0,-4.666100122100339,2.743882783882725,-6.903189255189773,1687593776.854171
180,1,1,8,57,10,0.00048828125,-0.015625,0.97021484375,0.0,-0.06103515625,0.0,-0.16793162393184247,-1.7542857142857997,0.5937582417577119,1687593776.8821702
181,1,1,8,67,10,0.00439453125,-0.0166015625,0.990234375,-0.18310546875,-0.18310546875,0.06103515625,-15.161826617826833,-0.25489621489629144,-0.9056312576317396,1687593776.8861713
182,1,1,8,77,10,0.005859375,-0.01025390625,0.9892578125,-0.18310546875,-0.18310546875,0.0,-3.1667106227108377,-6.252454212454268,-8.402578754579281,1687593776.9101725
183,1,1,8,87,10,0.01025390625,-0.0048828125,0.982421875,0.0,-0.244140625,0.18310546875,10.327794871794651,1.2444932844932168,8.090705738705196,1687593776.9121714
184,1,1,8,97,10,-0.00390625,-0.013671875,1.013671875,-0.06103515625,0.244140625,0.1220703125,-0.16793162393184247,-1.7542857142857997,-8.402578754579281,1687593776.9131715
185,1,1,8,107,10,0.0,-0.00390625,1.01123046875,-0.06103515625,0.30517578125,-0.06103515625,-1.6673211233213436,-7.751843711843776,6.591316239315745,1687593776.933172
186,1,1,8,117,10,0.0029296875,-0.0009765625,1.0,0.1220703125,0.42724609375,0.0,4.330236874236661,-1.7542857142857997,5.091926739926237,1687593776.93417
187,1,1,8,127,10,0.0029296875,-0.0068359375,1.02587890625,0.1220703125,0.06103515625,-0.06103515625,-0.16793162393184247,-13.749401709401809,-2.405020757021248,1687593776.93617
188,1,1,8,137,10,0.00830078125,-0.0185546875,1.0078125,0.18310546875,0.3662109375,0.0,10.327794871794651,-9.251233211233284,-5.403799755800264,1687593776.970173
189,1,1,8,147,10,-0.00244140625,-0.00146484375,1.02734375,0.244140625,0.54931640625,0.06103515625,-13.662437118437339,4.243272283272233,-8.402578754579281,1687593776.9711711
190,1,1,8,157,10,-0.0048828125,-0.0107421875,1.01416015625,0.1220703125,0.42724609375,0.18310546875,4.330236874236661,-13.749401709401809,-2.405020757021248,1687593776.9721704
191,1,1,8,167,10,0.0068359375,-0.0029296875,1.01708984375,0.1220703125,0.42724609375,-0.1220703125,-1.6673211233213436,10.24083028083021,-3.904410256410756,1687593776.9731705
192,1,1,8,177,10,0.00634765625,-0.00244140625,0.990234375,0.06103515625,0.244140625,0.06103515625,7.329015873015656,-9.251233211233284,-2.405020757021248,1687593777.0011718
193,1,1,8,187,10,-0.005859375,-0.01171875,1.02587890625,0.18310546875,0.42724609375,0.0,-12.163047619047838,2.743882783882725,3.5925372405367284,1687593777.0021713
194,1,1,8,197,10,0.00537109375,-0.0068359375,1.00439453125,0.18310546875,0.54931640625,0.0,-9.164268620268835,-4.753064713064759,-11.401357753358297,1687593777.0311716
195,1,1,8,207,10,0.001953125,-0.00537109375,0.9931640625,-0.1220703125,0.18310546875,-0.18310546875,-9.164268620268835,-10.750622710622793,6.591316239315745,1687593777.0330155
196,1,1,8,217,10,0.0029296875,-0.01318359375,1.0078125,-0.06103515625,0.1220703125,0.0,14.825963369963155,-9.251233211233284,0.5937582417577119,1687593777.0340552
197,1,1,8,227,10,0.0087890625,-0.0048828125,0.99365234375,-0.18310546875,-0.18310546875,-0.18310546875,2.83084737484716,-4.753064713064759,-6.903189255189773,1687593777.036022
198,1,1,8,237,10,0.0068359375,-0.0068359375,0.98046875,-0.18310546875,-0.1220703125,0.0,-0.16793162393184247,-9.251233211233284,-5.403799755800264,1687593777.0468698
199,1,1,8,247,10,-0.0029296875,-0.01513671875,0.98486328125,-0.18310546875,-0.30517578125,0.0,7.329015873015656,-6.252454212454268,5.091926739926237,1687593777.0608368
200,1,1,8,257,10,0.009765625,-0.009765625,0.9814453125,-0.18310546875,-0.06103515625,0.0,-0.16793162393184247,-1.7542857142857997,-5.403799755800264,1687593777.0688381
201,1,1,8,267,10,0.00830078125,-0.0048828125,0.974609375,-0.30517578125,-0.30517578125,0.06103515625,-1.6673211233213436,13.239609279609226,9.590095238094705,1687593777.0758388
202,1,1,8,277,10,0.00830078125,-0.005859375,0.99853515625,0.0,-0.1220703125,0.0,-10.663658119658336,1.2444932844932168,-12.900747252747806,1687593777.089851
203,1,1,8,287,10,0.00439453125,-0.01708984375,0.98681640625,-0.1220703125,-0.18310546875,-0.06103515625,-1.6673211233213436,-4.753064713064759,3.5925372405367284,1687593777.091851
204,1,1,8,297,10,0.009765625,-0.0107421875,0.98828125,-0.18310546875,0.0,0.18310546875,-6.16548962148984,1.2444932844932168,-2.405020757021248,1687593777.1035395
205,1,1,8,307,10,0.0078125,-0.00830078125,0.9912109375,-0.06103515625,0.0,-0.06103515625,4.330236874236661,-1.7542857142857997,0.5937582417577119,1687593777.1224852
206,1,1,8,317,10,0.00048828125,-0.00439453125,0.99755859375,0.0,0.06103515625,0.0,-4.666100122100339,2.743882783882725,-3.904410256410756,1687593777.123485
207,1,1,8,327,10,0.00439453125,-0.00048828125,1.001953125,0.1220703125,0.30517578125,-0.18310546875,-3.1667106227108377,-9.251233211233284,-8.402578754579281,1687593777.1364853
208,1,1,8,337,10,0.00830078125,-0.01220703125,1.015625,0.1220703125,0.30517578125,-0.06103515625,-3.1667106227108377,-1.7542857142857997,11.089484737484213,1687593777.1594872
209,1,1,8,347,10,-0.00341796875,-0.0146484375,1.00537109375,0.06103515625,0.3662109375,-0.244140625,5.829626373626155,2.743882783882725,-11.401357753358297,1687593777.160485
210,1,1,8,357,10,0.00439453125,-0.00048828125,1.01904296875,0.30517578125,0.48828125,0.0,10.327794871794651,4.243272283272233,-5.403799755800264,1687593777.1774862
211,1,1,8,367,10,0.0009765625,-0.00341796875,1.015625,0.18310546875,0.6103515625,-0.06103515625,-4.666100122100339,-0.25489621489629144,6.591316239315745,1687593777.1794844
212,1,1,8,377,10,0.001953125,-0.0048828125,0.9951171875,0.06103515625,0.42724609375,0.0,-0.16793162393184247,-9.251233211233284,-8.402578754579281,1687593777.1811965
213,1,1,8,387,10,0.00732421875,-0.013671875,1.009765625,0.06103515625,0.48828125,0.0,-6.16548962148984,-1.7542857142857997,5.091926739926237,1687593777.2262356
214,1,1,8,397,10,0.00732421875,-0.0087890625,0.9970703125,-0.06103515625,0.244140625,0.0,-0.16793162393184247,-16.74818070818077,0.5937582417577119,1687593777.2282047
215,1,1,8,407,10,-0.00146484375,0.00146484375,0.9873046875,0.0,0.244140625,0.0,4.330236874236661,-1.7542857142857997,-8.402578754579281,1687593777.2292044
216,1,1,8,417,10,0.001953125,-0.00146484375,0.98681640625,-0.06103515625,0.18310546875,0.1220703125,14.825963369963155,-1.7542857142857997,15.587653235652738,1687593777.2302299
217,1,1,8,427,10,0.01611328125,-0.00732421875,1.009765625,-0.244140625,-0.244140625,0.0,-15.161826617826833,-15.24879120879126,6.591316239315745,1687593777.246208
218,1,1,8,437,10,0.0126953125,-0.013671875,0.97900390625,0.0,-0.244140625,0.0,7.329015873015656,-6.252454212454268,8.090705738705196,1687593777.2472389
219,1,1,8,447,10,0.0048828125,-0.0107421875,0.98388671875,-0.06103515625,-0.06103515625,0.1220703125,16.325352869352656,-7.751843711843776,-0.9056312576317396,1687593777.259214
220,1,1,8,457,10,0.01171875,-0.0078125,0.9814453125,-0.06103515625,-0.1220703125,0.0,-1.6673211233213436,-7.751843711843776,-0.9056312576317396,1687593777.2895284
221,1,1,8,467,10,0.0078125,-0.00048828125,0.9833984375,-0.1220703125,-0.3662109375,0.0,-3.1667106227108377,-1.7542857142857997,-8.402578754579281,1687593777.290528
222,1,1,8,477,10,0.01171875,-0.01513671875,0.9921875,-0.1220703125,0.0,-0.06103515625,-0.16793162393184247,-6.252454212454268,-5.403799755800264,1687593777.2915273
223,1,1,8,487,10,0.01220703125,-0.0146484375,1.02001953125,-0.06103515625,0.06103515625,0.0,-3.1667106227108377,-1.7542857142857997,-15.899526251526709,1687593777.3215268
224,1,1,8,497,10,-0.0009765625,-0.009765625,1.0009765625,0.0,0.06103515625,0.0,22.322910866910647,1.2444932844932168,0.5937582417577119,1687593777.3229444
225,1,1,8,507,10,-0.00390625,-0.00146484375,0.9990234375,-0.06103515625,0.1220703125,0.0,8.828405372405157,-7.751843711843776,3.5925372405367284,1687593777.3269532
226,1,1,8,517,10,0.00439453125,-0.0087890625,1.001953125,0.0,0.0,0.0,-12.163047619047838,-4.753064713064759,12.588874236873721,1687593777.3599522
227,1,1,8,527,10,0.0087890625,-0.01025390625,1.01171875,-0.06103515625,0.0,-0.1220703125,2.83084737484716,-10.750622710622793,3.5925372405367284,1687593777.361952
228,1,1,8,537,10,0.00830078125,-0.01025390625,1.02880859375,0.0,0.244140625,-0.18310546875,8.828405372405157,5.742661782661685,-0.9056312576317396,1687593777.362952
229,1,1,8,547,10,0.0048828125,-0.00146484375,1.00439453125,0.06103515625,0.3662109375,0.1220703125,-1.6673211233213436,-4.753064713064759,3.5925372405367284,1687593777.3704104
230,1,1,8,557,10,0.0009765625,-0.00341796875,0.9970703125,0.0,0.48828125,0.06103515625,13.326573870573654,-0.25489621489629144,9.590095238094705,1687593777.372417
231,1,1,8,567,10,0.0107421875,-0.0078125,1.02294921875,0.18310546875,0.42724609375,0.0,-3.1667106227108377,1.2444932844932168,0.5937582417577119,1687593777.3734183
232,1,1,8,577,10,-0.00244140625,0.0,1.0205078125,0.06103515625,0.42724609375,-0.06103515625,-10.663658119658336,1.2444932844932168,5.091926739926237,1687593777.3894193
233,1,1,8,587,10,-0.0048828125,-0.01220703125,1.0185546875,0.18310546875,0.48828125,0.0,-3.1667106227108377,-1.7542857142857997,-2.405020757021248,1687593777.3954191
234,1,1,8,597,10,0.00439453125,-0.005859375,1.0244140625,0.06103515625,0.6103515625,0.06103515625,-6.16548962148984,1.2444932844932168,5.091926739926237,1687593777.4144177
235,1,1,8,607,10,0.009765625,-0.00390625,0.98974609375,0.0,0.18310546875,0.0,-10.663658119658336,-6.252454212454268,-5.403799755800264,1687593777.4164193
236,1,1,8,617,10,0.0126953125,-0.013671875,1.00244140625,-0.18310546875,0.0,0.18310546875,5.829626373626155,2.743882783882725,6.591316239315745,1687593777.444418
237,1,1,8,627,10,-0.0029296875,-0.01416015625,1.009765625,-0.06103515625,0.0,0.06103515625,-3.1667106227108377,4.243272283272233,-5.403799755800264,1687593777.4464176
238,1,1,8,637,10,0.00439453125,-0.01318359375,1.0068359375,0.0,0.0,0.18310546875,13.326573870573654,2.743882783882725,-0.9056312576317396,1687593777.4474285
239,1,1,8,647,10,0.0078125,-0.0048828125,0.98828125,-0.1220703125,-0.06103515625,0.06103515625,-3.1667106227108377,-1.7542857142857997,0.5937582417577119,1687593777.4604177
240,1,1,8,657,10,0.0009765625,-0.00244140625,0.978515625,-0.1220703125,-0.30517578125,0.06103515625,-16.661216117216334,-1.7542857142857997,8.090705738705196,1687593777.469418
241,1,1,8,667,10,0.01171875,-0.0107421875,0.9677734375,-0.30517578125,-0.30517578125,0.1220703125,2.83084737484716,2.743882783882725,6.591316239315745,1687593777.4834192
242,1,1,8,677,10,0.0087890625,-0.00927734375,0.994140625,-0.1220703125,-0.1220703125,-0.06103515625,-0.16793162393184247,-6.252454212454268,-2.405020757021248,1687593777.5174177
243,1,1,8,687,10,0.0126953125,-0.01318359375,0.98974609375,0.0,-0.06103515625,-0.06103515625,-1.6673211233213436,-0.25489621489629144,-3.904410256410756,1687593777.519285
244,1,1,8,697,10,0.00927734375,-0.013671875,1.00244140625,-0.1220703125,0.0,0.1220703125,-1.6673211233213436,-4.753064713064759,-6.903189255189773,1687593777.519285
245,1,1,8,707,10,0.009765625,0.001953125,1.00341796875,-0.06103515625,0.0,0.0,7.329015873015656,11.740219780219718,-2.405020757021248,1687593777.521284
246,1,1,8,717,10,0.00390625,-0.00927734375,0.98974609375,0.0,0.0,-0.1220703125,10.327794871794651,-16.74818070818077,5.091926739926237,1687593777.5283146
247,1,1,8,727,10,-0.00537109375,-0.0048828125,1.00927734375,0.0,0.30517578125,0.1220703125,-6.16548962148984,8.741440781440701,-2.405020757021248,1687593777.5533214
248,1,1,8,737,10,-0.001953125,-0.00537109375,0.9990234375,0.06103515625,0.3662109375,-0.06103515625,8.828405372405157,-15.24879120879126,-0.9056312576317396,1687593777.555321
249,1,1,8,747,10,0.00732421875,-0.015625,1.02099609375,0.0,0.48828125,-0.06103515625,-1.6673211233213436,-10.750622710622793,3.5925372405367284,1687593777.5713203
250,1,1,8,757,10,-0.00048828125,0.00390625,1.01611328125,0.1220703125,0.30517578125,0.0,5.829626373626155,-4.753064713064759,-0.9056312576317396,1687593777.5723207
251,1,1,8,767,10,0.005859375,-0.0009765625,1.01220703125,0.0,0.6103515625,0.0,-16.661216117216334,-1.7542857142857997,-2.405020757021248,1687593777.5763216
252,1,1,8,777,10,0.00439453125,-0.0029296875,0.99365234375,0.1220703125,0.42724609375,0.1220703125,-0.16793162393184247,-19.746959706959785,5.091926739926237,1687593777.5973208
253,1,1,8,787,10,0.00732421875,-0.01025390625,1.0107421875,0.1220703125,0.48828125,0.06103515625,-13.662437118437339,8.741440781440701,0.5937582417577119,1687593777.5983226
254,1,1,8,797,10,0.00146484375,-0.009765625,1.01025390625,0.1220703125,0.18310546875,-0.06103515625,-4.666100122100339,-0.25489621489629144,-3.904410256410756,1687593777.6263216
255,1,1,8,807,10,-0.0048828125,-0.00439453125,1.0078125,0.0,0.1220703125,0.18310546875,7.329015873015656,-13.749401709401809,-8.402578754579281,1687593777.6283224
256,1,1,8,817,10,0.00927734375,-0.005859375,0.99658203125,0.0,0.06103515625,0.0,4.330236874236661,8.741440781440701,5.091926739926237,1687593777.6373208
257,1,1,8,827,10,0.0068359375,-0.009765625,0.99658203125,0.0,0.06103515625,0.0,8.828405372405157,-0.25489621489629144,-14.400136752137314,1687593777.6453226
258,1,1,8,837,10,0.00341796875,0.00439453125,0.9892578125,-0.06103515625,-0.18310546875,-0.06103515625,-3.1667106227108377,8.741440781440701,0.5937582417577119,1687593777.646322
259,1,1,8,847,10,0.00390625,-0.0087890625,0.994140625,-0.18310546875,-0.1220703125,-0.06103515625,-6.16548962148984,-6.252454212454268,5.091926739926237,1687593777.6613207
260,1,1,8,857,10,0.0107421875,-0.0087890625,0.97900390625,-0.1220703125,-0.1220703125,0.0,-0.16793162393184247,-1.7542857142857997,-2.405020757021248,1687593777.6913216
261,1,1,8,867,10,0.00048828125,-0.00732421875,1.0029296875,-0.18310546875,-0.18310546875,-0.06103515625,7.329015873015656,-1.7542857142857997,5.091926739926237,1687593777.6933208
262,1,1,8,877,10,0.0068359375,-0.0146484375,0.984375,-0.244140625,0.0,0.0,-1.6673211233213436,-7.751843711843776,-3.904410256410756,1687593777.7006674
263,1,1,8,887,10,0.0009765625,-0.00927734375,0.9921875,-0.06103515625,0.0,-0.06103515625,-4.666100122100339,-4.753064713064759,-6.903189255189773,1687593777.701676
264,1,1,8,897,10,0.00439453125,-0.00732421875,0.9921875,-0.06103515625,-0.1220703125,0.0,5.829626373626155,-10.750622710622793,-0.9056312576317396,1687593777.7186751
265,1,1,8,907,10,0.009765625,0.0048828125,1.00537109375,0.0,0.06103515625,0.0,-6.16548962148984,4.243272283272233,-5.403799755800264,1687593777.7596745
266,1,1,8,917,10,0.00390625,-0.01171875,1.01025390625,0.06103515625,0.1220703125,-0.18310546875,-13.662437118437339,1.2444932844932168,0.5937582417577119,1687593777.7613578
267,1,1,8,927,10,0.0078125,-0.00244140625,0.9990234375,0.0,0.244140625,0.1220703125,-15.161826617826833,-4.753064713064759,-6.903189255189773,1687593777.7623665
268,1,1,8,937,10,-0.001953125,-0.00390625,1.00732421875,0.06103515625,0.244140625,-0.1220703125,-3.1667106227108377,1.2444932844932168,-8.402578754579281,1687593777.763391
269,1,1,8,947,10,0.00439453125,-0.00390625,1.00732421875,0.0,0.244140625,0.0,-0.16793162393184247,11.740219780219718,-12.900747252747806,1687593777.7643647
270,1,1,8,957,10,0.00341796875,-0.00927734375,1.013671875,0.1220703125,0.48828125,-0.18310546875,-1.6673211233213436,-4.753064713064759,12.588874236873721,1687593777.7704275
271,1,1,8,967,10,0.00634765625,-0.01171875,1.013671875,0.1220703125,0.3662109375,0.1220703125,-10.663658119658336,-1.7542857142857997,-12.900747252747806,1687593777.783426
272,1,1,8,977,10,-0.00341796875,-0.0107421875,1.01171875,0.18310546875,0.67138671875,0.0,-4.666100122100339,-4.753064713064759,6.591316239315745,1687593777.793426
273,1,1,8,987,10,-0.00146484375,-0.0087890625,1.00927734375,0.1220703125,0.48828125,0.06103515625,-4.666100122100339,-7.751843711843776,-0.9056312576317396,1687593777.7974262
274,1,1,8,997,10,-0.0029296875,-0.01220703125,1.01123046875,0.06103515625,0.3662109375,0.0,-1.6673211233213436,-4.753064713064759,-0.9056312576317396,1687593777.8124266
275,1,1,9,7,10,0.0009765625,-0.0146484375,1.0029296875,0.18310546875,0.244140625,-0.1220703125,4.330236874236661,-9.251233211233284,5.091926739926237,1687593777.8204253
276,1,1,9,17,10,0.00732421875,-0.01220703125,0.99853515625,0.0,0.244140625,-0.06103515625,16.325352869352656,2.743882783882725,-3.904410256410756,1687593777.8391469
277,1,1,9,27,10,0.00830078125,-0.01904296875,0.99853515625,-0.06103515625,0.18310546875,-0.06103515625,5.829626373626155,5.742661782661685,-0.9056312576317396,1687593777.8421462
278,1,1,9,37,10,0.00341796875,-0.009765625,0.98974609375,-0.1220703125,0.1220703125,0.0,5.829626373626155,-15.24879120879126,-20.397694749695233,1687593777.843146
279,1,1,9,47,10,0.00830078125,-0.00830078125,0.98681640625,0.06103515625,0.0,-0.18310546875,7.329015873015656,1.2444932844932168,5.091926739926237,1687593777.8611465
280,1,1,9,57,10,0.0166015625,-0.0078125,0.98046875,0.0,-0.3662109375,-0.244140625,-6.16548962148984,-1.7542857142857997,0.5937582417577119,1687593777.8741474
281,1,1,9,67,10,0.00732421875,-0.01220703125,0.98193359375,-0.1220703125,-0.06103515625,0.06103515625,-3.1667106227108377,-16.74818070818077,5.091926739926237,1687593777.9001472
282,1,1,9,77,10,0.01123046875,-0.00927734375,0.98486328125,-0.244140625,-0.244140625,0.18310546875,8.828405372405157,-0.25489621489629144,3.5925372405367284,1687593777.9011588
283,1,1,9,87,10,0.00048828125,-0.017578125,0.99169921875,-0.06103515625,-0.244140625,-0.06103515625,-1.6673211233213436,-0.25489621489629144,-3.904410256410756,1687593777.902892
284,1,1,9,97,10,0.0068359375,-0.01025390625,0.9833984375,-0.1220703125,-0.06103515625,-0.1220703125,-6.16548962148984,1.2444932844932168,5.091926739926237,1687593777.9089005
285,1,1,9,107,10,0.01220703125,-0.0087890625,0.990234375,-0.1220703125,-0.06103515625,0.06103515625,-3.1667106227108377,-6.252454212454268,8.090705738705196,1687593777.948899
286,1,1,9,117,10,0.0078125,-0.01025390625,0.99951171875,0.1220703125,0.1220703125,-0.06103515625,-0.16793162393184247,-6.252454212454268,-8.402578754579281,1687593777.9499006
287,1,1,9,127,10,0.0126953125,-0.00048828125,1.00146484375,0.1220703125,0.244140625,0.0,-6.16548962148984,-1.7542857142857997,11.089484737484213,1687593777.9509013
288,1,1,9,137,10,-0.0009765625,-0.0029296875,1.00927734375,0.1220703125,0.1220703125,0.0,-0.16793162393184247,-6.252454212454268,-8.402578754579281,1687593777.9598994
289,1,1,9,147,10,-0.001953125,-0.0029296875,1.00146484375,0.0,0.30517578125,0.06103515625,-3.1667106227108377,-16.74818070818077,15.587653235652738,1687593777.9609
290,1,1,9,157,10,0.01171875,-0.009765625,1.01025390625,0.18310546875,0.54931640625,0.1220703125,5.829626373626155,2.743882783882725,-6.903189255189773,1687593777.9979
291,1,1,9,167,10,0.00927734375,-0.0029296875,1.01123046875,0.18310546875,0.3662109375,0.244140625,7.329015873015656,4.243272283272233,-2.405020757021248,1687593778.0048988
292,1,1,9,177,10,0.01416015625,-0.013671875,1.0283203125,0.18310546875,0.48828125,0.0,-12.163047619047838,2.743882783882725,-0.9056312576317396,1687593778.0068994
293,1,1,9,187,10,0.0048828125,0.00537109375,1.0166015625,0.0,0.30517578125,0.0,-3.1667106227108377,-6.252454212454268,-8.402578754579281,1687593778.0108988
294,1,1,9,197,10,0.00634765625,-0.0107421875,1.0068359375,0.0,0.42724609375,0.0,-13.662437118437339,-1.7542857142857997,-12.900747252747806,1687593778.0128996
295,1,1,9,207,10,0.00341796875,-0.0087890625,1.0009765625,0.06103515625,0.1220703125,-0.3662109375,13.326573870573654,2.743882783882725,3.5925372405367284,1687593778.025899
296,1,1,9,217,10,-0.001953125,-0.02099609375,1.00927734375,-0.06103515625,0.0,-0.1220703125,14.825963369963155,4.243272283272233,5.091926739926237,1687593778.0389001
297,1,1,9,227,10,0.0048828125,-0.01806640625,0.9892578125,0.1220703125,0.244140625,0.0,-6.16548962148984,-24.245128205128253,-8.402578754579281,1687593778.0539005
298,1,1,9,237,10,0.00048828125,-0.0078125,0.99169921875,-0.1220703125,0.0,0.06103515625,-9.164268620268835,-4.753064713064759,-0.9056312576317396,1687593778.0549262
299,1,1,9,247,10,0.00830078125,-0.01513671875,0.9833984375,-0.06103515625,0.0,-0.244140625,-12.163047619047838,-7.751843711843776,-11.401357753358297,1687593778.061904
300,1,1,9,257,10,0.00830078125,-0.0087890625,0.99072265625,0.1220703125,-0.06103515625,0.06103515625,-1.6673211233213436,-4.753064713064759,-3.904410256410756,1687593778.091039
301,1,1,9,267,10,0.00830078125,-0.0146484375,0.99658203125,0.06103515625,-0.30517578125,-0.1220703125,-13.662437118437339,-6.252454212454268,0.5937582417577119,1687593778.0928993
302,1,1,9,277,10,0.00439453125,-0.0205078125,0.98779296875,-0.1220703125,0.0,0.06103515625,-9.164268620268835,-15.24879120879126,-0.9056312576317396,1687593778.1009004
303,1,1,9,287,10,0.0078125,-0.0107421875,0.9912109375,-0.06103515625,-0.06103515625,0.244140625,10.327794871794651,-6.252454212454268,5.091926739926237,1687593778.1129005
304,1,1,9,297,10,-0.00146484375,-0.00830078125,0.98779296875,-0.1220703125,0.06103515625,-0.1220703125,-3.1667106227108377,-9.251233211233284,15.587653235652738,1687593778.113898
305,1,1,9,307,10,-0.00390625,-0.005859375,0.97509765625,0.0,-0.06103515625,0.0,-1.6673211233213436,5.742661782661685,9.590095238094705,1687593778.1189365
306,1,1,9,317,10,0.0078125,-0.0107421875,1.00732421875,0.0,0.0,0.06103515625,-0.16793162393184247,-1.7542857142857997,-2.405020757021248,1687593778.1339118
307,1,1,9,327,10,-0.001953125,-0.01611328125,1.00439453125,0.0,0.0,-0.18310546875,17.82474236874215,-6.252454212454268,0.5937582417577119,1687593778.134929
308,1,1,9,337,10,0.00537109375,-0.01025390625,1.00537109375,-0.06103515625,0.0,0.0,13.326573870573654,2.743882783882725,-0.9056312576317396,1687593778.1468992
309,1,1,9,347,10,0.00341796875,-0.00244140625,1.005859375,0.06103515625,0.18310546875,-0.18310546875,4.330236874236661,-6.252454212454268,5.091926739926237,1687593778.1609006
310,1,1,9,357,10,0.00390625,-0.00341796875,0.994140625,0.06103515625,0.244140625,0.0,-3.1667106227108377,-9.251233211233284,-12.900747252747806,1687593778.1881542
311,1,1,9,367,10,0.0029296875,-0.02001953125,1.0166015625,-0.06103515625,0.3662109375,0.1220703125,-9.164268620268835,-0.25489621489629144,6.591316239315745,1687593778.1901546
312,1,1,9,377,10,0.0048828125,-0.00439453125,1.0078125,0.244140625,0.48828125,0.0,-0.16793162393184247,-9.251233211233284,-2.405020757021248,1687593778.1911564
313,1,1,9,387,10,-0.0029296875,-0.0029296875,1.017578125,0.06103515625,0.3662109375,-0.06103515625,17.82474236874215,-6.252454212454268,0.5937582417577119,1687593778.2341275
314,1,1,9,397,10,0.00537109375,-0.01123046875,1.00537109375,0.1220703125,0.54931640625,-0.30517578125,-1.6673211233213436,2.743882783882725,-0.9056312576317396,1687593778.235126
315,1,1,9,407,10,0.001953125,-0.0068359375,1.005859375,0.06103515625,0.244140625,0.0,4.330236874236661,1.2444932844932168,-5.403799755800264,1687593778.2361267
316,1,1,9,417,10,0.0107421875,-0.00927734375,1.0068359375,0.06103515625,0.30517578125,-0.06103515625,-9.164268620268835,-10.750622710622793,-6.903189255189773,1687593778.2371264
317,1,1,9,427,10,0.0,-0.01123046875,0.99951171875,0.1220703125,0.18310546875,0.0,-6.16548962148984,11.740219780219718,-2.405020757021248,1687593778.238126
318,1,1,9,437,10,0.00537109375,-0.005859375,0.994140625,-0.06103515625,0.0,-0.06103515625,8.828405372405157,-15.24879120879126,-0.9056312576317396,1687593778.2571273
319,1,1,9,447,10,0.00537109375,-0.00390625,0.99658203125,-0.06103515625,-0.06103515625,0.06103515625,2.83084737484716,-7.751843711843776,-6.903189255189773,1687593778.2581255
320,1,1,9,457,10,0.0078125,-0.0048828125,0.9775390625,-0.06103515625,0.0,-0.06103515625,-3.1667106227108377,-1.7542857142857997,0.5937582417577119,1687593778.2691264
321,1,1,9,467,10,0.0146484375,-0.01611328125,0.984375,-0.18310546875,-0.244140625,-0.06103515625,8.828405372405157,2.743882783882725,9.590095238094705,1687593778.2779398
322,1,1,9,477,10,0.005859375,-0.01123046875,0.98876953125,0.0,-0.1220703125,-0.1220703125,-4.666100122100339,10.24083028083021,-0.9056312576317396,1687593778.2919476
323,1,1,9,487,10,0.01318359375,-0.013671875,0.990234375,-0.1220703125,-0.18310546875,-0.06103515625,-4.666100122100339,-4.753064713064759,3.5925372405367284,1687593778.2973046
324,1,1,9,497,10,0.00732421875,-0.01416015625,0.97412109375,-0.18310546875,-0.244140625,0.0,8.828405372405157,-0.25489621489629144,9.590095238094705,1687593778.3273144
325,1,1,9,507,10,0.0087890625,-0.00244140625,0.98681640625,-0.1220703125,-0.1220703125,0.0,-1.6673211233213436,2.743882783882725,-11.401357753358297,1687593778.329312
326,1,1,9,517,10,0.0029296875,-0.0087890625,0.98486328125,0.0,0.0,-0.06103515625,4.330236874236661,-1.7542857142857997,0.5937582417577119,1687593778.3303123
327,1,1,9,527,10,0.005859375,-0.0126953125,0.9912109375,0.06103515625,0.18310546875,0.06103515625,4.330236874236661,-6.252454212454268,0.5937582417577119,1687593778.3513129
328,1,1,9,537,10,0.009765625,-0.0048828125,0.99462890625,-0.06103515625,0.0,0.0,10.327794871794651,1.2444932844932168,0.5937582417577119,1687593778.353312
329,1,1,9,547,10,-0.0048828125,-0.005859375,1.02490234375,0.06103515625,0.18310546875,0.0,-1.6673211233213436,5.742661782661685,-0.9056312576317396,1687593778.3743532
330,1,1,9,557,10,0.00146484375,-0.01171875,1.0146484375,0.0,0.244140625,0.1220703125,14.825963369963155,-1.7542857142857997,8.090705738705196,1687593778.3753128
331,1,1,9,567,10,0.01025390625,-0.0146484375,1.01806640625,0.06103515625,0.54931640625,0.1220703125,2.83084737484716,5.742661782661685,-3.904410256410756,1687593778.3833134
332,1,1,9,577,10,0.00537109375,-0.00537109375,1.0166015625,0.0,0.67138671875,0.0,-0.16793162393184247,-6.252454212454268,0.5937582417577119,1687593778.3853135
333,1,1,9,587,10,0.001953125,-0.001953125,1.01025390625,0.06103515625,0.30517578125,0.0,7.329015873015656,-13.749401709401809,-5.403799755800264,1687593778.4123118
334,1,1,9,597,10,0.00146484375,-0.00439453125,1.009765625,0.1220703125,0.3662109375,-0.1220703125,4.330236874236661,8.741440781440701,8.090705738705196,1687593778.415312
335,1,1,9,607,10,0.00537109375,-0.02099609375,1.00439453125,0.0,0.3662109375,0.06103515625,13.326573870573654,-7.751843711843776,-6.903189255189773,1687593778.441312
336,1,1,9,617,10,0.0068359375,-0.01171875,1.00830078125,0.1220703125,0.6103515625,0.1220703125,-3.1667106227108377,-13.749401709401809,8.090705738705196,1687593778.4433126
337,1,1,9,627,10,0.01123046875,-0.00732421875,0.9970703125,0.0,0.244140625,0.0,4.330236874236661,-1.7542857142857997,5.091926739926237,1687593778.4443116
338,1,1,9,637,10,-0.001953125,-0.0009765625,0.99072265625,-0.06103515625,0.0,0.0,8.828405372405157,2.743882783882725,3.5925372405367284,1687593778.480268
339,1,1,9,647,10,0.00634765625,-0.00439453125,0.9990234375,0.0,-0.244140625,0.06103515625,-1.6673211233213436,-4.753064713064759,-14.400136752137314,1687593778.4812677
340,1,1,9,657,10,0.00927734375,-0.01123046875,0.97705078125,0.0,-0.06103515625,-0.06103515625,-1.6673211233213436,-7.751843711843776,-3.904410256410756,1687593778.482266
341,1,1,9,667,10,0.0048828125,-0.013671875,0.98193359375,-0.18310546875,-0.1220703125,0.0,-4.666100122100339,2.743882783882725,-0.9056312576317396,1687593778.4952662
342,1,1,9,677,10,0.0048828125,-0.015625,0.97998046875,-0.1220703125,-0.3662109375,0.0,-3.1667106227108377,-9.251233211233284,5.091926739926237,1687593778.4962933
343,1,1,9,687,10,0.00537109375,-0.00439453125,0.9736328125,-0.244140625,-0.18310546875,-0.18310546875,2.83084737484716,10.24083028083021,6.591316239315745,1687593778.5102675
344,1,1,9,697,10,0.0068359375,0.00244140625,0.97265625,-0.06103515625,-0.30517578125,0.0,-3.1667106227108377,4.243272283272233,0.5937582417577119,1687593778.5113118
345,1,1,9,707,10,0.005859375,-0.00439453125,0.98828125,0.0,-0.06103515625,0.0,-13.662437118437339,8.741440781440701,5.091926739926237,1687593778.53927
346,1,1,9,717,10,-0.00048828125,-0.00732421875,0.98876953125,0.0,0.0,-0.18310546875,-9.164268620268835,2.743882783882725,12.588874236873721,1687593778.5402951
347,1,1,9,727,10,0.00341796875,-0.01953125,0.9990234375,-0.1220703125,-0.06103515625,0.1220703125,2.83084737484716,5.742661782661685,-11.401357753358297,1687593778.5412662
348,1,1,9,737,10,-0.00390625,-0.0087890625,1.0029296875,0.0,-0.06103515625,-0.06103515625,13.326573870573654,-10.750622710622793,6.591316239315745,1687593778.5562663
349,1,1,9,747,10,0.0048828125,0.00048828125,0.990234375,0.0,0.1220703125,-0.06103515625,7.329015873015656,-9.251233211233284,-8.402578754579281,1687593778.5572662
350,1,1,9,757,10,-0.00244140625,-0.0078125,1.00439453125,0.1220703125,0.244140625,0.0,4.330236874236661,1.2444932844932168,-2.405020757021248,1687593778.572266
351,1,1,9,767,10,0.00146484375,-0.0126953125,1.00146484375,0.06103515625,0.244140625,0.1220703125,-13.662437118437339,4.243272283272233,-5.403799755800264,1687593778.579298
352,1,1,9,777,10,-0.0068359375,-0.00830078125,1.02490234375,0.06103515625,0.30517578125,0.1220703125,10.327794871794651,8.741440781440701,8.090705738705196,1687593778.5932674
353,1,1,9,787,10,-0.00048828125,-0.0107421875,1.02490234375,0.1220703125,0.244140625,-0.18310546875,2.83084737484716,-0.25489621489629144,-0.9056312576317396,1687593778.607266
354,1,1,9,797,10,0.00146484375,-0.01123046875,1.01025390625,0.244140625,0.3662109375,-0.06103515625,-10.663658119658336,-6.252454212454268,-2.405020757021248,1687593778.6092665
355,1,1,9,807,10,0.0,-0.01171875,1.01123046875,0.1220703125,0.3662109375,0.0,-1.6673211233213436,-4.753064713064759,3.5925372405367284,1687593778.6232657
356,1,1,9,817,10,0.00634765625,-0.005859375,1.0126953125,0.18310546875,0.42724609375,0.0,10.327794871794651,-6.252454212454268,-2.405020757021248,1687593778.6502998
357,1,1,9,827,10,-0.00341796875,-0.00927734375,0.99951171875,0.0,0.244140625,-0.06103515625,5.829626373626155,5.742661782661685,-17.398915750916217,1687593778.6522973
358,1,1,9,837,10,0.00439453125,-0.0029296875,0.9892578125,-0.18310546875,0.0,0.0,5.829626373626155,-4.753064713064759,-0.9056312576317396,1687593778.654266
359,1,1,9,847,10,0.005859375,-0.00439453125,0.9931640625,0.0,0.0,-0.06103515625,8.828405372405157,-7.751843711843776,-11.401357753358297,1687593778.6752691
360,1,1,9,857,10,0.0146484375,-0.01708984375,0.9833984375,0.0,0.06103515625,0.0,7.329015873015656,1.2444932844932168,0.5937582417577119,1687593778.6842678
361,1,1,9,867,10,0.0029296875,-0.01025390625,0.99365234375,-0.1220703125,0.06103515625,-0.06103515625,-3.1667106227108377,-6.252454212454268,-2.405020757021248,1687593778.6853068
362,1,1,9,877,10,0.00634765625,-0.0107421875,0.96435546875,-0.18310546875,-0.18310546875,-0.06103515625,-0.16793162393184247,-1.7542857142857997,-5.403799755800264,1687593778.6932666
363,1,1,9,887,10,0.0068359375,-0.00341796875,0.98486328125,-0.3662109375,-0.244140625,-0.06103515625,2.83084737484716,-10.750622710622793,-3.904410256410756,1687593778.707266
364,1,1,9,897,10,0.00341796875,-0.0048828125,0.98388671875,0.0,-0.18310546875,0.0,-1.6673211233213436,-15.24879120879126,-0.9056312576317396,1687593778.7252667
365,1,1,9,907,10,0.00439453125,-0.00390625,0.98974609375,-0.244140625,-0.18310546875,0.0,-3.1667106227108377,8.741440781440701,-8.402578754579281,1687593778.726267
366,1,1,9,917,10,0.005859375,-0.0126953125,0.994140625,-0.1220703125,-0.1220703125,0.30517578125,-3.1667106227108377,-9.251233211233284,-12.900747252747806,1687593778.7472665
367,1,1,9,927,10,0.0107421875,-0.00390625,0.99365234375,0.0,0.0,0.0,13.326573870573654,-7.751843711843776,-0.9056312576317396,1687593778.748268
368,1,1,9,937,10,-0.0009765625,-0.0087890625,1.00146484375,0.06103515625,-0.06103515625,-0.1220703125,7.329015873015656,8.741440781440701,5.091926739926237,1687593778.7612681
369,1,1,9,947,10,0.0009765625,-0.01171875,1.0029296875,0.0,0.244140625,-0.06103515625,-3.1667106227108377,-1.7542857142857997,-5.403799755800264,1687593778.7622674
370,1,1,9,957,10,-0.00341796875,-0.013671875,1.009765625,0.06103515625,0.244140625,-0.06103515625,-6.16548962148984,1.2444932844932168,-2.405020757021248,1687593778.7822661
371,1,1,9,967,10,0.0029296875,-0.01171875,1.0146484375,0.06103515625,0.244140625,0.0,7.329015873015656,4.243272283272233,-2.405020757021248,1687593778.7842677
372,1,1,9,977,10,0.00048828125,-0.00341796875,1.01416015625,0.1220703125,0.18310546875,-0.18310546875,-3.1667106227108377,-9.251233211233284,-5.403799755800264,1687593778.7992792
373,1,1,9,987,10,0.001953125,-0.005859375,1.00439453125,0.1220703125,0.42724609375,-0.06103515625,-6.16548962148984,-6.252454212454268,11.089484737484213,1687593778.8002675
374,1,1,9,997,10,0.0087890625,-0.0087890625,1.00634765625,0.18310546875,0.6103515625,0.0,-4.666100122100339,-0.25489621489629144,-0.9056312576317396,1687593778.8089561
375,1,1,10,7,10,0.00634765625,-0.009765625,1.0009765625,0.0,0.244140625,-0.244140625,-0.16793162393184247,-1.7542857142857997,-2.405020757021248,1687593778.834982
376,1,1,10,17,10,0.0107421875,-0.015625,1.01123046875,0.06103515625,0.18310546875,-0.06103515625,-4.666100122100339,-0.25489621489629144,-0.9056312576317396,1687593778.8525233
377,1,1,10,27,10,0.00341796875,-0.0048828125,1.009765625,0.0,0.06103515625,0.0,-3.1667106227108377,-16.74818070818077,-5.403799755800264,1687593778.8615246
378,1,1,10,37,10,0.00341796875,-0.0009765625,0.99560546875,0.0,0.06103515625,-0.06103515625,2.83084737484716,2.743882783882725,-0.9056312576317396,1687593778.8625238
379,1,1,10,47,10,0.0068359375,-0.00341796875,0.99072265625,0.0,0.0,0.06103515625,-4.666100122100339,2.743882783882725,-0.9056312576317396,1687593778.8695543
380,1,1,10,57,10,0.00830078125,-0.01953125,0.97998046875,-0.1220703125,-0.06103515625,0.0,-4.666100122100339,-4.753064713064759,-11.401357753358297,1687593778.8860655
381,1,1,10,67,10,0.015625,-0.00439453125,0.97998046875,-0.18310546875,-0.06103515625,0.244140625,-1.6673211233213436,-4.753064713064759,9.590095238094705,1687593778.888065
382,1,1,10,77,10,0.00830078125,-0.0068359375,0.97509765625,-0.06103515625,-0.18310546875,0.0,-6.16548962148984,1.2444932844932168,-2.405020757021248,1687593778.9059057
383,1,1,10,87,10,0.00146484375,-0.01123046875,0.9931640625,0.0,-0.3662109375,-0.18310546875,7.329015873015656,4.243272283272233,-2.405020757021248,1687593778.9069939
384,1,1,10,97,10,0.0087890625,-0.0166015625,0.9755859375,-0.1220703125,-0.18310546875,-0.1220703125,-6.16548962148984,1.2444932844932168,15.587653235652738,1687593778.9197612
385,1,1,10,107,10,0.00634765625,-0.01416015625,0.99560546875,-0.244140625,0.0,0.0,-0.16793162393184247,1.2444932844932168,-2.405020757021248,1687593778.9207592
386,1,1,10,117,10,0.0,-0.0185546875,0.9990234375,-0.1220703125,-0.06103515625,0.1220703125,-1.6673211233213436,-0.25489621489629144,-3.904410256410756,1687593778.9419405
387,1,1,10,127,10,0.0,-0.005859375,0.99365234375,0.18310546875,-0.1220703125,-0.1220703125,-10.663658119658336,4.243272283272233,0.5937582417577119,1687593778.943946
388,1,1,10,137,10,0.00732421875,0.00146484375,0.98974609375,-0.18310546875,-0.06103515625,-0.06103515625,-3.1667106227108377,-16.74818070818077,0.5937582417577119,1687593778.9549394
389,1,1,10,147,10,0.00341796875,-0.0068359375,1.00732421875,0.0,0.06103515625,-0.1220703125,-6.16548962148984,4.243272283272233,0.5937582417577119,1687593778.970096
390,1,1,10,157,10,0.0,-0.00927734375,1.005859375,-0.1220703125,0.30517578125,0.0,-0.16793162393184247,8.741440781440701,-2.405020757021248,1687593778.9710956
391,1,1,10,167,10,-0.0009765625,-0.0009765625,1.001953125,-0.06103515625,0.18310546875,0.0,2.83084737484716,-7.751843711843776,-0.9056312576317396,1687593778.9987292
392,1,1,10,177,10,-0.00439453125,-0.00732421875,1.01416015625,0.0,0.244140625,-0.18310546875,-4.666100122100339,2.743882783882725,-11.401357753358297,1687593779.000731
393,1,1,10,187,10,-0.00048828125,-0.0087890625,1.00439453125,0.0,0.48828125,0.1220703125,-1.6673211233213436,-7.751843711843776,-6.903189255189773,1687593779.0197601
394,1,1,10,197,10,0.00927734375,0.00146484375,1.0107421875,0.30517578125,0.42724609375,0.0,10.327794871794651,-9.251233211233284,-2.405020757021248,1687593779.020731
395,1,1,10,207,10,0.001953125,-0.01025390625,1.025390625,0.1220703125,0.732421875,0.244140625,-4.666100122100339,-10.750622710622793,12.588874236873721,1687593779.0487301
396,1,1,10,217,10,-0.00439453125,-0.01416015625,1.00927734375,0.06103515625,0.3662109375,0.06103515625,13.326573870573654,-0.25489621489629144,-0.9056312576317396,1687593779.04973
397,1,1,10,227,10,0.00146484375,-0.00537109375,1.01123046875,0.0,0.244140625,0.0,13.326573870573654,-10.750622710622793,-0.9056312576317396,1687593779.05073
398,1,1,10,237,10,0.00927734375,-0.0087890625,1.00830078125,0.0,0.3662109375,0.0,-4.666100122100339,-0.25489621489629144,-0.9056312576317396,1687593779.0687718
399,1,1,10,247,10,0.0048828125,-0.01171875,0.9990234375,0.0,0.30517578125,0.0,2.83084737484716,5.742661782661685,6.591316239315745,1687593779.070732
400,1,1,10,257,10,0.00048828125,-0.0078125,0.98583984375,0.0,0.06103515625,0.0,2.83084737484716,5.742661782661685,-3.904410256410756,1687593779.0767312
401,1,1,10,267,10,0.00048828125,-0.00732421875,0.9951171875,-0.1220703125,0.0,-0.06103515625,-9.164268620268835,-4.753064713064759,6.591316239315745,1687593779.0957618
402,1,1,10,277,10,0.00537109375,-0.00390625,0.9716796875,-0.1220703125,-0.18310546875,0.06103515625,-6.16548962148984,-9.251233211233284,0.5937582417577119,1687593779.0967598
403,1,1,10,287,10,0.0166015625,-0.01513671875,0.9755859375,0.0,-0.30517578125,0.0,-9.164268620268835,-4.753064713064759,-0.9056312576317396,1687593779.1297302
404,1,1,10,297,10,0.00830078125,-0.01220703125,0.9794921875,-0.06103515625,-0.1220703125,0.18310546875,5.829626373626155,5.742661782661685,-11.401357753358297,1687593779.1307557
405,1,1,10,307,10,0.0146484375,-0.01611328125,0.9765625,-0.1220703125,-0.1220703125,0.1220703125,-3.1667106227108377,1.2444932844932168,0.5937582417577119,1687593779.13273
406,1,1,10,317,10,0.01318359375,-0.01220703125,0.99365234375,0.0,-0.1220703125,-0.06103515625,-3.1667106227108377,1.2444932844932168,0.5937582417577119,1687593779.1337295
407,1,1,10,327,10,0.0009765625,-0.0087890625,0.99365234375,-0.1220703125,-0.1220703125,-0.06103515625,-3.1667106227108377,1.2444932844932168,0.5937582417577119,1687593779.1557665
408,1,1,10,337,10,0.01123046875,-0.00341796875,0.99853515625,0.0,0.0,0.1220703125,-3.1667106227108377,1.2444932844932168,0.5937582417577119,1687593779.15673
409,1,1,10,347,10,0.0,-0.01025390625,0.99560546875,0.06103515625,0.0,-0.1220703125,-3.1667106227108377,1.2444932844932168,0.5937582417577119,1687593779.1747313
410,1,1,10,357,10,0.00927734375,-0.01416015625,0.99609375,0.06103515625,0.1220703125,0.0,-3.1667106227108377,1.2444932844932168,0.5937582417577119,1687593779.175732
411,1,1,10,367,10,0.00146484375,-0.0107421875,1.01611328125,0.1220703125,0.30517578125,0.0,-3.1667106227108377,1.2444932844932168,0.5937582417577119,1687593779.1798527
412,1,1,10,377,10,0.00048828125,-0.0029296875,1.00341796875,0.18310546875,0.30517578125,0.18310546875,-3.1667106227108377,1.2444932844932168,0.5937582417577119,1687593779.2098606
413,1,1,10,387,10,0.00537109375,-0.00439453125,1.00830078125,0.06103515625,0.3662109375,-0.1220703125,-3.1667106227108377,1.2444932844932168,0.5937582417577119,1687593779.211862
414,1,1,10,397,10,0.0029296875,-0.01513671875,1.0126953125,0.06103515625,0.30517578125,-0.06103515625,-4.666100122100339,-0.25489621489629144,6.591316239315745,1687593779.228894
415,1,1,10,407,10,0.0087890625,-0.01123046875,1.02001953125,0.06103515625,0.42724609375,0.06103515625,8.828405372405157,-0.25489621489629144,9.590095238094705,1687593779.23086
416,1,1,10,417,10,0.005859375,-0.0107421875,0.994140625,0.0,0.42724609375,0.0,4.330236874236661,-9.251233211233284,0.5937582417577119,1687593779.2468615
417,1,1,10,427,10,0.0029296875,-0.0146484375,1.00146484375,0.18310546875,0.3662109375,0.0,-13.662437118437339,-6.252454212454268,11.089484737484213,1687593779.255905
418,1,1,10,437,10,0.01318359375,-0.013671875,0.97705078125,0.0,0.06103515625,0.244140625,-4.666100122100339,-4.753064713064759,3.5925372405367284,1687593779.269894
419,1,1,10,447,10,0.001953125,-0.01318359375,0.994140625,0.06103515625,0.18310546875,0.06103515625,-9.164268620268835,10.24083028083021,-3.904410256410756,1687593779.2708614
420,1,1,10,457,10,0.00634765625,-0.0068359375,0.9970703125,-0.18310546875,-0.1220703125,-0.18310546875,-1.6673211233213436,-18.247570207570277,3.5925372405367284,1687593779.2778606
421,1,1,10,467,10,0.01318359375,-0.01123046875,0.9970703125,-0.06103515625,-0.06103515625,0.0,2.83084737484716,-7.751843711843776,-6.903189255189773,1687593779.2838607
422,1,1,10,477,10,0.00439453125,-0.00341796875,0.97998046875,-0.1220703125,-0.30517578125,-0.06103515625,-0.16793162393184247,1.2444932844932168,5.091926739926237,1687593779.3038597
423,1,1,10,487,10,0.0078125,-0.0146484375,0.9765625,-0.06103515625,-0.1220703125,0.06103515625,2.83084737484716,2.743882783882725,-11.401357753358297,1687593779.3048615
424,1,1,10,497,10,0.00439453125,-0.015625,0.97509765625,-0.1220703125,-0.1220703125,-0.244140625,5.829626373626155,-7.751843711843776,-3.904410256410756,1687593779.306862
425,1,1,10,507,10,0.009765625,-0.0078125,0.99169921875,-0.1220703125,-0.1220703125,-0.1220703125,-10.663658119658336,-1.7542857142857997,-15.899526251526709,1687593779.3324206
426,1,1,10,517,10,0.00732421875,-0.01708984375,0.9814453125,0.0,0.0,0.06103515625,-1.6673211233213436,-4.753064713064759,6.591316239315745,1687593779.3331368
427,1,1,10,527,10,0.005859375,-0.0068359375,0.974609375,-0.06103515625,-0.06103515625,0.0,-0.16793162393184247,-16.74818070818077,0.5937582417577119,1687593779.361137
428,1,1,10,537,10,0.01123046875,-0.009765625,0.99658203125,-0.1220703125,-0.06103515625,-0.1220703125,8.828405372405157,-4.753064713064759,-0.9056312576317396,1687593779.3631392
429,1,1,10,547,10,-0.00341796875,-0.01513671875,0.9931640625,0.0,0.06103515625,-0.06103515625,-19.659995115995333,-7.751843711843776,-0.9056312576317396,1687593779.3641376
430,1,1,10,557,10,0.00390625,-0.0078125,0.9970703125,0.0,0.18310546875,-0.06103515625,-1.6673211233213436,5.742661782661685,-0.9056312576317396,1687593779.3816204
431,1,1,10,567,10,0.00439453125,-0.00390625,0.99853515625,0.1220703125,0.18310546875,-0.06103515625,8.828405372405157,-15.24879120879126,-6.903189255189773,1687593779.3906283
432,1,1,10,577,10,0.00390625,-0.00244140625,0.9931640625,0.18310546875,0.18310546875,0.0,4.330236874236661,1.2444932844932168,0.5937582417577119,1687593779.4096296
433,1,1,10,587,10,0.00830078125,-0.00927734375,1.0146484375,0.06103515625,0.30517578125,0.0,-13.662437118437339,1.2444932844932168,5.091926739926237,1687593779.4116275
434,1,1,10,597,10,0.00537109375,-0.017578125,1.0234375,0.18310546875,0.42724609375,-0.30517578125,-21.15938461538483,1.2444932844932168,0.5937582417577119,1687593779.4236286
435,1,1,10,607,10,-0.001953125,-0.0029296875,1.02001953125,0.18310546875,0.244140625,-0.06103515625,7.329015873015656,1.2444932844932168,8.090705738705196,1687593779.4246275
436,1,1,10,617,10,0.0107421875,-0.0087890625,1.0107421875,0.18310546875,0.42724609375,0.18310546875,13.326573870573654,2.743882783882725,23.084600732600222,1687593779.4426296
437,1,1,10,627,10,0.00732421875,-0.013671875,1.01123046875,0.06103515625,0.48828125,0.0,4.330236874236661,4.243272283272233,0.5937582417577119,1687593779.4446278
438,1,1,10,637,10,0.01416015625,-0.009765625,1.001953125,0.0,0.30517578125,0.0,-3.1667106227108377,-6.252454212454268,-2.405020757021248,1687593779.457628
439,1,1,10,647,10,0.01220703125,-0.0107421875,1.01904296875,0.1220703125,0.18310546875,0.0,7.329015873015656,-13.749401709401809,-12.900747252747806,1687593779.477629
440,1,1,10,657,10,0.0029296875,-0.009765625,1.0029296875,0.0,0.06103515625,-0.1220703125,10.327794871794651,-6.252454212454268,-12.900747252747806,1687593779.4784424
441,1,1,10,667,10,0.00146484375,-0.00732421875,1.005859375,-0.06103515625,-0.06103515625,0.06103515625,-4.666100122100339,-0.25489621489629144,-0.9056312576317396,1687593779.4904497
442,1,1,10,677,10,0.0107421875,-0.0068359375,0.9775390625,0.0,-0.1220703125,-0.18310546875,-13.662437118437339,-6.252454212454268,0.5937582417577119,1687593779.4924495
443,1,1,10,687,10,0.0166015625,-0.00537109375,0.98828125,-0.1220703125,-0.30517578125,0.18310546875,-1.6673211233213436,-10.750622710622793,-0.9056312576317396,1687593779.5044496
444,1,1,10,697,10,0.0087890625,-0.01708984375,0.98974609375,-0.18310546875,-0.18310546875,-0.06103515625,-12.163047619047838,-0.25489621489629144,-3.904410256410756,1687593779.5454495
445,1,1,10,707,10,0.0078125,-0.0078125,0.98291015625,-0.1220703125,-0.06103515625,0.0,-3.1667106227108377,-1.7542857142857997,-8.402578754579281,1687593779.5474508
446,1,1,10,717,10,0.01318359375,-0.0126953125,0.98291015625,-0.30517578125,-0.244140625,0.0,-0.16793162393184247,-6.252454212454268,-2.405020757021248,1687593779.5484505
447,1,1,10,727,10,0.0009765625,-0.00439453125,0.98583984375,-0.1220703125,0.0,0.18310546875,-4.666100122100339,-10.750622710622793,3.5925372405367284,1687593779.5544515
448,1,1,10,737,10,0.0048828125,-0.0146484375,0.994140625,0.0,0.0,-0.18310546875,2.83084737484716,-10.750622710622793,-6.903189255189773,1687593779.5694516
449,1,1,10,747,10,0.00927734375,-0.0068359375,1.00732421875,0.0,0.18310546875,-0.18310546875,-3.1667106227108377,1.2444932844932168,11.089484737484213,1687593779.5754502
450,1,1,10,757,10,0.0107421875,-0.00537109375,0.9951171875,0.0,0.1220703125,-0.06103515625,-4.666100122100339,5.742661782661685,-6.903189255189773,1687593779.6052577
451,1,1,10,767,10,0.0048828125,-0.00048828125,1.01806640625,0.1220703125,0.244140625,-0.18310546875,-1.6673211233213436,10.24083028083021,-0.9056312576317396,1687593779.6062672
452,1,1,10,777,10,-0.0009765625,-0.001953125,1.0087890625,0.0,0.30517578125,-0.1220703125,-6.16548962148984,-6.252454212454268,5.091926739926237,1687593779.608265
453,1,1,10,787,10,0.0009765625,-0.0078125,1.02734375,0.30517578125,0.54931640625,0.0,-1.6673211233213436,5.742661782661685,-6.903189255189773,1687593779.6142645
454,1,1,10,797,10,0.00048828125,-0.01513671875,1.01611328125,0.0,0.48828125,0.0,-9.164268620268835,-4.753064713064759,-0.9056312576317396,1687593779.6272664
455,1,1,10,807,10,-0.00830078125,-0.0078125,0.9990234375,0.0,0.3662109375,0.18310546875,8.828405372405157,2.743882783882725,-17.398915750916217,1687593779.6344678
456,1,1,10,817,10,-0.0009765625,-0.00341796875,0.9970703125,-0.1220703125,0.18310546875,0.0,4.330236874236661,1.2444932844932168,-2.405020757021248,1687593779.6534753
457,1,1,10,827,10,0.0078125,-0.0048828125,1.00634765625,0.0,0.244140625,-0.18310546875,7.329015873015656,-9.251233211233284,-2.405020757021248,1687593779.6544771
458,1,1,10,837,10,-0.00048828125,-0.0068359375,0.98876953125,0.0,0.18310546875,0.0,2.83084737484716,-4.753064713064759,-6.903189255189773,1687593779.656476
459,1,1,10,847,10,0.00439453125,-0.0107421875,0.9990234375,0.06103515625,0.30517578125,0.18310546875,16.325352869352656,-0.25489621489629144,-0.9056312576317396,1687593779.6610293
460,1,1,10,857,10,0.0107421875,-0.01318359375,0.98779296875,0.0,0.06103515625,-0.1220703125,-3.1667106227108377,-6.252454212454268,-5.403799755800264,1687593779.691058
461,1,1,10,867,10,0.01171875,-0.00341796875,0.99072265625,-0.244140625,-0.1220703125,-0.06103515625,5.829626373626155,-7.751843711843776,-17.398915750916217,1687593779.693038
462,1,1,10,877,10,0.00634765625,-0.01220703125,0.9853515625,-0.18310546875,-0.30517578125,-0.06103515625,8.828405372405157,5.742661782661685,3.5925372405367284,1687593779.7070367
463,1,1,10,887,10,0.00830078125,-0.0126953125,1.00146484375,-0.18310546875,-0.1220703125,0.244140625,-6.16548962148984,-1.7542857142857997,-2.405020757021248,1687593779.7080374
464,1,1,10,897,10,0.01318359375,-0.0078125,0.98291015625,0.0,0.0,0.06103515625,13.326573870573654,-4.753064713064759,3.5925372405367284,1687593779.713038
465,1,1,10,907,10,0.001953125,-0.00537109375,0.998046875,-0.06103515625,0.0,-0.18310546875,-6.16548962148984,1.2444932844932168,5.091926739926237,1687593779.7420373
466,1,1,10,917,10,0.01123046875,-0.0126953125,0.98046875,-0.18310546875,0.0,0.1220703125,8.828405372405157,-0.25489621489629144,-3.904410256410756,1687593779.744038
467,1,1,10,927,10,0.0068359375,-0.001953125,0.99072265625,-0.18310546875,-0.30517578125,0.0,-12.163047619047838,-4.753064713064759,-0.9056312576317396,1687593779.7730384
468,1,1,10,937,10,0.01025390625,-0.01171875,0.9931640625,0.0,0.0,-0.06103515625,-0.16793162393184247,4.243272283272233,-5.403799755800264,1687593779.774068
469,1,1,10,947,10,0.00390625,-0.0107421875,1.0068359375,0.18310546875,-0.06103515625,-0.244140625,8.828405372405157,-4.753064713064759,-0.9056312576317396,1687593779.7750366
470,1,1,10,957,10,0.009765625,-0.00927734375,1.013671875,0.0,0.06103515625,0.0,-4.666100122100339,-0.25489621489629144,3.5925372405367284,1687593779.779037
471,1,1,10,967,10,0.00732421875,-0.01025390625,0.98876953125,0.06103515625,0.3662109375,0.244140625,2.83084737484716,-0.25489621489629144,-0.9056312576317396,1687593779.8101513
472,1,1,10,977,10,0.00537109375,-0.0087890625,1.02490234375,0.06103515625,0.42724609375,0.0,-10.663658119658336,8.741440781440701,0.5937582417577119,1687593779.8111598
473,1,1,10,987,10,0.0068359375,-0.0166015625,1.009765625,0.244140625,0.48828125,0.0,10.327794871794651,11.740219780219718,15.587653235652738,1687593779.8121593
474,1,1,10,997,10,0.00048828125,-0.001953125,1.0205078125,0.1220703125,0.3662109375,0.30517578125,2.83084737484716,10.24083028083021,6.591316239315745,1687593779.8131597
475,1,1,11,7,10,0.0,-0.005859375,1.00927734375,0.06103515625,0.54931640625,-0.06103515625,-0.16793162393184247,11.740219780219718,-2.405020757021248,1687593779.8400528
476,1,1,11,17,10,0.0078125,-0.00830078125,1.025390625,0.1220703125,0.244140625,0.0,5.829626373626155,-7.751843711843776,3.5925372405367284,1687593779.8420544
477,1,1,11,27,10,0.00537109375,-0.01513671875,1.005859375,0.1220703125,0.30517578125,0.0,-9.164268620268835,-0.25489621489629144,9.590095238094705,1687593779.8430536
478,1,1,11,37,10,0.01025390625,-0.0048828125,1.00244140625,0.06103515625,0.3662109375,0.0,5.829626373626155,5.742661782661685,3.5925372405367284,1687593779.863053
479,1,1,11,47,10,-0.005859375,-0.0078125,1.00146484375,-0.1220703125,0.1220703125,-0.18310546875,13.326573870573654,-10.750622710622793,-3.904410256410756,1687593779.8640544
480,1,1,11,57,10,0.00146484375,-0.00341796875,1.0029296875,0.0,0.0,-0.18310546875,-0.16793162393184247,-1.7542857142857997,-2.405020757021248,1687593779.877055
481,1,1,11,67,10,0.00830078125,-0.00048828125,0.98388671875,0.0,-0.244140625,-0.06103515625,-6.16548962148984,-9.251233211233284,11.089484737484213,1687593779.8790538
482,1,1,11,77,10,0.001953125,-0.01171875,0.982421875,-0.1220703125,-0.06103515625,0.06103515625,-6.16548962148984,1.2444932844932168,-2.405020757021248,1687593779.9280539
483,1,1,11,87,10,0.00927734375,-0.0078125,0.986328125,-0.1220703125,-0.18310546875,0.06103515625,2.83084737484716,2.743882783882725,3.5925372405367284,1687593779.9300542
484,1,1,11,97,10,0.00537109375,-0.01611328125,0.98681640625,-0.18310546875,-0.18310546875,-0.06103515625,-1.6673211233213436,-4.753064713064759,-14.400136752137314,1687593779.9310527
485,1,1,11,107,10,0.01025390625,0.001953125,0.986328125,-0.06103515625,-0.1220703125,-0.1220703125,-12.163047619047838,-7.751843711843776,-20.397694749695233,1687593779.9330533
486,1,1,11,117,10,0.0078125,-0.00830078125,0.97607421875,-0.1220703125,-0.1220703125,0.0,-0.16793162393184247,-6.252454212454268,-5.403799755800264,1687593779.9450533
487,1,1,11,127,10,-0.00244140625,-0.017578125,0.986328125,-0.06103515625,0.0,-0.06103515625,-1.6673211233213436,-0.25489621489629144,-11.401357753358297,1687593779.959054
488,1,1,11,137,10,0.0068359375,-0.00830078125,0.9912109375,0.0,0.18310546875,0.1220703125,-3.1667106227108377,-13.749401709401809,-2.405020757021248,1687593779.9620533
489,1,1,11,147,10,0.00390625,-0.0048828125,1.01220703125,0.06103515625,0.0,0.0,2.83084737484716,-7.751843711843776,-11.401357753358297,1687593779.9770539
490,1,1,11,157,10,0.00830078125,-0.001953125,1.0068359375,0.0,0.244140625,-0.18310546875,2.83084737484716,-10.750622710622793,-6.903189255189773,1687593779.9786904
491,1,1,11,167,10,0.0078125,0.00146484375,1.017578125,0.1220703125,0.42724609375,-0.06103515625,-6.16548962148984,11.740219780219718,5.091926739926237,1687593779.9938178
492,1,1,11,177,10,0.00390625,-0.01220703125,1.01611328125,-0.06103515625,0.48828125,0.06103515625,2.83084737484716,-7.751843711843776,-3.904410256410756,1687593779.9948883
493,1,1,11,187,10,0.0029296875,-0.009765625,1.0048828125,0.1220703125,0.244140625,0.06103515625,5.829626373626155,2.743882783882725,3.5925372405367284,1687593780.0232522
494,1,1,11,197,10,-0.0009765625,-0.013671875,1.01025390625,0.0,0.48828125,0.06103515625,-6.16548962148984,4.243272283272233,-5.403799755800264,1687593780.0242522
495,1,1,11,207,10,0.0,-0.00390625,1.0048828125,0.1220703125,0.30517578125,0.0,7.329015873015656,1.2444932844932168,-2.405020757021248,1687593780.0509121
496,1,1,11,217,10,0.00830078125,-0.00341796875,1.01123046875,0.0,0.3662109375,-0.06103515625,-4.666100122100339,-4.753064713064759,-11.401357753358297,1687593780.0529127
497,1,1,11,227,10,0.00341796875,-0.01171875,1.0107421875,0.06103515625,0.18310546875,0.0,-0.16793162393184247,-6.252454212454268,15.587653235652738,1687593780.0549123
498,1,1,11,237,10,0.00390625,-0.0068359375,1.00439453125,0.0,0.18310546875,-0.1220703125,2.83084737484716,17.737777777777694,3.5925372405367284,1687593780.0649118
499,1,1,11,247,10,0.00537109375,-0.00390625,0.99951171875,-0.1220703125,0.0,-0.244140625,10.327794871794651,8.741440781440701,-5.403799755800264,1687593780.0659118
500,1,1,11,257,10,0.0078125,-0.0048828125,0.984375,0.0,-0.18310546875,-0.1220703125,5.829626373626155,-4.753064713064759,-3.904410256410756,1687593780.093234
501,1,1,11,267,10,0.00732421875,-0.00537109375,0.9912109375,-0.30517578125,-0.244140625,-0.18310546875,7.329015873015656,1.2444932844932168,11.089484737484213,1687593780.0952344
502,1,1,11,277,10,0.005859375,-0.00927734375,0.9794921875,0.0,0.0,0.0,-1.6673211233213436,-4.753064713064759,6.591316239315745,1687593780.100234
503,1,1,11,287,10,0.005859375,-0.013671875,0.99755859375,-0.244140625,-0.244140625,0.0,8.828405372405157,5.742661782661685,9.590095238094705,1687593780.116235
504,1,1,11,297,10,0.00048828125,-0.01171875,1.0078125,-0.06103515625,0.0,-0.06103515625,4.330236874236661,-6.252454212454268,-2.405020757021248,1687593780.1182337
505,1,1,11,307,10,0.0068359375,-0.001953125,0.98583984375,-0.1220703125,-0.1220703125,0.18310546875,-10.663658119658336,-13.749401709401809,-5.403799755800264,1687593780.1312332
506,1,1,11,317,10,0.005859375,-0.0009765625,0.990234375,-0.1220703125,0.0,0.0,-0.16793162393184247,-9.251233211233284,-8.402578754579281,1687593780.135235
507,1,1,11,327,10,0.005859375,-0.001953125,1.0068359375,-0.1220703125,0.0,0.0,-6.16548962148984,8.741440781440701,5.091926739926237,1687593780.167234
508,1,1,11,337,10,-0.0009765625,-0.01513671875,0.9921875,0.0,0.0,-0.06103515625,-1.6673211233213436,5.742661782661685,3.5925372405367284,1687593780.1682334
509,1,1,11,347,10,0.0078125,-0.00439453125,1.001953125,0.0,0.0,0.18310546875,10.327794871794651,4.243272283272233,-5.403799755800264,1687593780.169234
510,1,1,11,357,10,0.0029296875,-0.00341796875,0.99462890625,0.0,0.0,0.0,2.83084737484716,-4.753064713064759,9.590095238094705,1687593780.1902342
511,1,1,11,367,10,0.005859375,-0.005859375,1.0126953125,0.0,0.18310546875,0.0,-0.16793162393184247,-9.251233211233284,5.091926739926237,1687593780.1912336
512,1,1,11,377,10,0.00927734375,-0.00927734375,1.0048828125,0.0,0.42724609375,0.0,-6.16548962148984,1.2444932844932168,15.587653235652738,1687593780.1992357
513,1,1,11,387,10,0.00830078125,-0.0087890625,1.017578125,0.06103515625,0.42724609375,0.0,-4.666100122100339,-0.25489621489629144,-0.9056312576317396,1687593780.2052336
514,1,1,11,397,10,-0.001953125,-0.00537109375,1.0048828125,0.06103515625,0.42724609375,0.18310546875,10.327794871794651,1.2444932844932168,0.5937582417577119,1687593780.2192335
515,1,1,11,407,10,0.01171875,-0.0078125,1.0048828125,0.06103515625,0.18310546875,0.06103515625,-9.164268620268835,-10.750622710622793,-6.903189255189773,1687593780.2292335
516,1,1,11,417,10,0.00634765625,-0.01123046875,0.99609375,0.06103515625,0.06103515625,0.0,-9.164268620268835,-18.247570207570277,-3.904410256410756,1687593780.2572336
517,1,1,11,427,10,0.00830078125,-0.01708984375,0.98779296875,0.0,0.244140625,0.1220703125,8.828405372405157,-7.751843711843776,-6.903189255189773,1687593780.2602346
518,1,1,11,437,10,0.0078125,-0.0126953125,0.97607421875,0.0,0.1220703125,0.06103515625,10.327794871794651,-6.252454212454268,-5.403799755800264,1687593780.2732348
519,1,1,11,447,10,0.0009765625,-0.00732421875,0.98681640625,-0.06103515625,0.0,-0.18310546875,-16.661216117216334,-27.24390720390727,-18.898305250305725,1687593780.2752347
520,1,1,11,457,10,0.0078125,-0.0087890625,0.99365234375,-0.1220703125,-0.1220703125,0.0,-0.16793162393184247,-9.251233211233284,21.585211233210714,1687593780.2762344
521,1,1,11,467,10,0.00927734375,-0.00830078125,0.974609375,0.06103515625,-0.30517578125,0.0,7.329015873015656,4.243272283272233,-2.405020757021248,1687593780.2900577
522,1,1,11,477,10,0.0048828125,-0.009765625,0.97509765625,0.0,-0.1220703125,-0.06103515625,-0.16793162393184247,1.2444932844932168,0.5937582417577119,1687593780.327065
523,1,1,11,487,10,0.00537109375,-0.005859375,0.984375,-0.18310546875,-0.06103515625,0.06103515625,13.326573870573654,-0.25489621489629144,-3.904410256410756,1687593780.3290644
524,1,1,11,497,10,0.00537109375,-0.01025390625,0.98486328125,-0.244140625,-0.1220703125,-0.30517578125,2.83084737484716,-7.751843711843776,6.591316239315745,1687593780.3310664
525,1,1,11,507,10,0.009765625,-0.00927734375,0.98583984375,0.0,-0.244140625,0.1220703125,-3.1667106227108377,-1.7542857142857997,5.091926739926237,1687593780.3490088
526,1,1,11,517,10,0.00634765625,-0.00341796875,0.99951171875,0.0,0.0,0.0,-10.663658119658336,-6.252454212454268,-5.403799755800264,1687593780.3500094
527,1,1,11,527,10,0.013671875,-0.01171875,1.00830078125,0.1220703125,0.18310546875,-0.06103515625,-0.16793162393184247,-9.251233211233284,-8.402578754579281,1687593780.3520083
528,1,1,11,537,10,0.0029296875,-0.005859375,1.0166015625,0.1220703125,0.244140625,0.0,4.330236874236661,-9.251233211233284,5.091926739926237,1687593780.364043
529,1,1,11,547,10,-0.00048828125,-0.00146484375,1.00439453125,0.1220703125,0.30517578125,0.0,2.83084737484716,-15.24879120879126,-3.904410256410756,1687593780.3650477
530,1,1,11,557,10,0.00537109375,-0.001953125,1.00732421875,0.1220703125,0.3662109375,0.1220703125,-9.164268620268835,-4.753064713064759,3.5925372405367284,1687593780.3990486
531,1,1,11,567,10,0.001953125,-0.0068359375,1.001953125,0.1220703125,0.3662109375,0.06103515625,-0.16793162393184247,8.741440781440701,-5.403799755800264,1687593780.4000475
532,1,1,11,577,10,-0.0029296875,-0.0068359375,1.01611328125,0.244140625,0.54931640625,0.06103515625,-4.666100122100339,-0.25489621489629144,3.5925372405367284,1687593780.4010496
533,1,1,11,587,10,0.0,-0.0078125,1.013671875,0.06103515625,0.48828125,0.0,-16.661216117216334,1.2444932844932168,-2.405020757021248,1687593780.4190478
534,1,1,11,597,10,-0.00146484375,-0.01318359375,1.017578125,0.0,0.244140625,-0.1220703125,-10.663658119658336,-6.252454212454268,-2.405020757021248,1687593780.4200492
535,1,1,11,607,10,0.00537109375,-0.00390625,1.001953125,0.1220703125,0.18310546875,-0.1220703125,8.828405372405157,-4.753064713064759,6.591316239315745,1687593780.445049
536,1,1,11,617,10,0.00634765625,-0.0078125,0.99365234375,0.06103515625,0.244140625,0.06103515625,-10.663658119658336,-1.7542857142857997,-2.405020757021248,1687593780.4460502
537,1,1,11,627,10,0.00634765625,-0.01806640625,0.9873046875,0.0,0.06103515625,-0.18310546875,7.329015873015656,-1.7542857142857997,-5.403799755800264,1687593780.4650478
538,1,1,11,637,10,0.0087890625,-0.005859375,0.984375,-0.1220703125,0.0,0.0,-1.6673211233213436,-15.24879120879126,3.5925372405367284,1687593780.4660492
539,1,1,11,647,10,0.00634765625,-0.00732421875,0.99951171875,-0.18310546875,-0.1220703125,-0.1220703125,-12.163047619047838,2.743882783882725,6.591316239315745,1687593780.4810236
540,1,1,11,657,10,0.0078125,-0.01318359375,0.984375,-0.244140625,-0.3662109375,0.0,-1.6673211233213436,-4.753064713064759,-6.903189255189773,1687593780.483023
541,1,1,11,667,10,0.00830078125,-0.0068359375,0.9912109375,-0.06103515625,-0.30517578125,-0.06103515625,-10.663658119658336,11.740219780219718,0.5937582417577119,1687593780.4840248
542,1,1,11,677,10,0.00341796875,-0.0078125,0.98876953125,0.0,-0.244140625,-0.06103515625,-3.1667106227108377,-1.7542857142857997,5.091926739926237,1687593780.5090237
543,1,1,11,687,10,0.00634765625,-0.01904296875,0.98779296875,-0.06103515625,-0.06103515625,-0.06103515625,-1.6673211233213436,2.743882783882725,-0.9056312576317396,1687593780.5100255
544,1,1,11,697,10,0.0009765625,-0.001953125,1.00341796875,0.0,0.0,-0.18310546875,-0.16793162393184247,1.2444932844932168,8.090705738705196,1687593780.523655
545,1,1,11,707,10,0.00732421875,-0.009765625,1.00341796875,0.0,0.0,-0.1220703125,2.83084737484716,13.239609279609226,12.588874236873721,1687593780.5296545
546,1,1,11,717,10,0.0009765625,-0.01025390625,0.994140625,0.06103515625,0.0,0.0,8.828405372405157,-7.751843711843776,-6.903189255189773,1687593780.5310624
547,1,1,11,727,10,-0.0029296875,-0.00537109375,1.0166015625,0.1220703125,0.244140625,0.0,4.330236874236661,-19.746959706959785,8.090705738705196,1687593780.558071
548,1,1,11,737,10,0.00390625,-0.01416015625,1.00634765625,0.0,0.18310546875,0.18310546875,4.330236874236661,-1.7542857142857997,-5.403799755800264,1687593780.5610693
549,1,1,11,747,10,0.00048828125,-0.00439453125,1.00732421875,0.1220703125,0.244140625,-0.18310546875,-6.16548962148984,-9.251233211233284,-5.403799755800264,1687593780.58907
550,1,1,11,757,10,0.00341796875,-0.0078125,1.0029296875,0.18310546875,0.30517578125,-0.06103515625,17.82474236874215,1.2444932844932168,-8.402578754579281,1687593780.5911112
551,1,1,11,767,10,0.0,-0.009765625,1.01611328125,0.18310546875,0.54931640625,-0.1220703125,-1.6673211233213436,-10.750622710622793,9.590095238094705,1687593780.5920718
552,1,1,11,777,10,0.0009765625,-0.01025390625,1.0146484375,0.06103515625,0.48828125,-0.06103515625,-9.164268620268835,-7.751843711843776,-0.9056312576317396,1687593780.5961077
553,1,1,11,787,10,0.00634765625,-0.0126953125,1.02001953125,0.1220703125,0.30517578125,0.0,5.829626373626155,-0.25489621489629144,-3.904410256410756,1687593780.6160705
554,1,1,11,797,10,0.00830078125,-0.005859375,0.99853515625,0.06103515625,0.42724609375,0.0,-10.663658119658336,-9.251233211233284,0.5937582417577119,1687593780.6174366
555,1,1,11,807,10,0.00341796875,-0.01708984375,0.990234375,0.0,0.1220703125,0.06103515625,-1.6673211233213436,-0.25489621489629144,-3.904410256410756,1687593780.629476
556,1,1,11,817,10,0.0068359375,-0.0126953125,1.00146484375,0.06103515625,0.18310546875,0.0,-1.6673211233213436,-0.25489621489629144,-11.401357753358297,1687593780.6304443
557,1,1,11,827,10,0.01123046875,-0.0126953125,1.0029296875,0.0,0.06103515625,0.0,8.828405372405157,5.742661782661685,-11.401357753358297,1687593780.648098
558,1,1,11,837,10,0.01025390625,-0.00244140625,0.99462890625,-0.06103515625,0.0,0.0,-10.663658119658336,-13.749401709401809,-5.403799755800264,1687593780.6651049
559,1,1,11,847,10,0.0078125,-0.0048828125,0.98681640625,-0.18310546875,-0.18310546875,0.0,2.83084737484716,-7.751843711843776,3.5925372405367284,1687593780.6830053
560,1,1,11,857,10,0.00927734375,-0.01611328125,0.98828125,-0.3662109375,-0.18310546875,-0.18310546875,-1.6673211233213436,-15.24879120879126,-0.9056312576317396,1687593780.6850333
561,1,1,11,867,10,0.01318359375,-0.01611328125,0.97412109375,-0.06103515625,-0.1220703125,-0.1220703125,5.829626373626155,2.743882783882725,-3.904410256410756,1687593780.6870039
562,1,1,11,877,10,0.00439453125,-0.0166015625,0.98779296875,0.0,-0.42724609375,-0.244140625,-0.16793162393184247,-1.7542857142857997,-2.405020757021248,1687593780.7139986
563,1,1,11,887,10,0.0,-0.00537109375,0.982421875,0.0,-0.06103515625,0.06103515625,-16.661216117216334,1.2444932844932168,-2.405020757021248,1687593780.714999
564,1,1,11,897,10,0.00048828125,-0.00341796875,0.97509765625,-0.1220703125,-0.18310546875,-0.1220703125,17.82474236874215,1.2444932844932168,0.5937582417577119,1687593780.721999
565,1,1,11,907,10,-0.00146484375,-0.01025390625,0.9931640625,-0.18310546875,-0.1220703125,0.244140625,5.829626373626155,10.24083028083021,-6.903189255189773,1687593780.7399144
566,1,1,11,917,10,0.0146484375,-0.01171875,0.99951171875,0.18310546875,0.06103515625,-0.18310546875,-0.16793162393184247,-9.251233211233284,5.091926739926237,1687593780.7419243
567,1,1,11,927,10,-0.005859375,-0.00927734375,1.01123046875,0.06103515625,0.3662109375,0.0,-9.164268620268835,-15.24879120879126,-6.903189255189773,1687593780.7689214
568,1,1,11,937,10,0.005859375,-0.00732421875,0.99169921875,0.18310546875,0.42724609375,-0.06103515625,5.829626373626155,2.743882783882725,12.588874236873721,1687593780.7709212
569,1,1,11,947,10,-0.001953125,-0.01171875,1.0146484375,0.1220703125,0.54931640625,-0.18310546875,2.83084737484716,-15.24879120879126,-6.903189255189773,1687593780.7799227
570,1,1,11,957,10,0.01123046875,-0.005859375,1.0126953125,0.06103515625,0.18310546875,-0.1220703125,-0.16793162393184247,-1.7542857142857997,0.5937582417577119,1687593780.7809222
571,1,1,11,967,10,-0.0048828125,-0.009765625,1.00634765625,0.06103515625,0.42724609375,0.30517578125,-0.16793162393184247,14.738998778998734,5.091926739926237,1687593780.808922
572,1,1,11,977,10,-0.0078125,-0.0107421875,1.01611328125,0.1220703125,0.6103515625,0.18310546875,2.83084737484716,5.742661782661685,6.591316239315745,1687593780.8099215
573,1,1,11,987,10,0.00146484375,-0.0048828125,0.9892578125,0.1220703125,0.54931640625,-0.1220703125,-6.16548962148984,-13.749401709401809,0.5937582417577119,1687593780.8119228
574,1,1,11,997,10,-0.00048828125,-0.00390625,0.9970703125,0.0,0.06103515625,0.0,-4.666100122100339,-7.751843711843776,-0.9056312576317396,1687593780.8129215
575,1,1,12,7,10,0.00732421875,-0.0048828125,0.984375,0.0,0.3662109375,0.1220703125,-6.16548962148984,-6.252454212454268,0.5937582417577119,1687593780.8286934
576,1,1,12,17,10,0.00732421875,-0.00439453125,0.9873046875,0.0,0.0,0.06103515625,-4.666100122100339,-10.750622710622793,-3.904410256410756,1687593780.8474135
577,1,1,12,27,10,0.00732421875,-0.0068359375,0.98193359375,-0.1220703125,0.0,0.06103515625,-4.666100122100339,-0.25489621489629144,-17.398915750916217,1687593780.848414
578,1,1,12,37,10,0.00537109375,-0.00927734375,0.984375,-0.18310546875,-0.18310546875,-0.06103515625,-21.15938461538483,-13.749401709401809,-2.405020757021248,1687593780.8620164
579,1,1,12,47,10,0.0087890625,-0.01123046875,0.9873046875,-0.1220703125,-0.30517578125,0.0,-9.164268620268835,2.743882783882725,-11.401357753358297,1687593780.863016
580,1,1,12,57,10,0.00146484375,-0.00146484375,0.9873046875,-0.1220703125,0.0,-0.06103515625,5.829626373626155,-0.25489621489629144,-3.904410256410756,1687593780.8740165
581,1,1,12,67,10,0.00390625,-0.0107421875,0.99609375,-0.1220703125,-0.06103515625,0.0,2.83084737484716,-7.751843711843776,3.5925372405367284,1687593780.9141235
582,1,1,12,77,10,-0.00048828125,-0.01025390625,0.98779296875,0.0,0.0,-0.06103515625,-12.163047619047838,2.743882783882725,6.591316239315745,1687593780.9151247
583,1,1,12,87,10,0.01025390625,-0.009765625,0.99658203125,-0.1220703125,0.06103515625,-0.06103515625,-13.662437118437339,-6.252454212454268,11.089484737484213,1687593780.9171245
584,1,1,12,97,10,0.01123046875,-0.0078125,0.9873046875,-0.1220703125,-0.06103515625,0.06103515625,7.329015873015656,1.2444932844932168,-8.402578754579281,1687593780.9178064
585,1,1,12,107,10,0.00146484375,-0.0029296875,0.990234375,0.0,0.42724609375,-0.06103515625,4.330236874236661,11.740219780219718,8.090705738705196,1687593780.9308145
586,1,1,12,117,10,0.00537109375,-0.001953125,1.021484375,0.0,0.3662109375,-0.1220703125,-6.16548962148984,4.243272283272233,-12.900747252747806,1687593780.9368129
587,1,1,12,127,10,0.00146484375,-0.0029296875,1.0244140625,0.0,0.244140625,0.0,-6.16548962148984,1.2444932844932168,-2.405020757021248,1687593780.9658134
588,1,1,12,137,10,0.0,-0.00830078125,1.0009765625,0.1220703125,0.18310546875,0.0,-3.1667106227108377,-1.7542857142857997,0.5937582417577119,1687593780.9678435
589,1,1,12,147,10,0.0068359375,0.00341796875,1.00830078125,0.30517578125,0.30517578125,-0.30517578125,-1.6673211233213436,10.24083028083021,17.087042735042246,1687593780.9688141
590,1,1,12,157,10,0.0078125,-0.0087890625,1.01806640625,0.244140625,0.3662109375,0.0,-19.659995115995333,-15.24879120879126,12.588874236873721,1687593780.9818234
591,1,1,12,167,10,0.01123046875,-0.01171875,1.0087890625,0.30517578125,0.48828125,-0.06103515625,-9.164268620268835,-0.25489621489629144,-3.904410256410756,1687593780.9918325
592,1,1,12,177,10,-0.0009765625,-0.0126953125,1.017578125,0.18310546875,0.3662109375,-0.06103515625,7.329015873015656,-13.749401709401809,0.5937582417577119,1687593780.9928308
593,1,1,12,187,10,0.00341796875,-0.0009765625,0.994140625,0.0,0.244140625,0.244140625,-10.663658119658336,-1.7542857142857997,-26.395252747253267,1687593781.0098314
594,1,1,12,197,10,0.00732421875,-0.00732421875,1.0029296875,-0.06103515625,0.18310546875,0.0,2.83084737484716,-7.751843711843776,-0.9056312576317396,1687593781.0447443
595,1,1,12,207,10,0.00537109375,-0.00830078125,1.009765625,0.1220703125,0.244140625,0.0,-10.663658119658336,-6.252454212454268,-18.898305250305725,1687593781.046745
596,1,1,12,217,10,0.0009765625,-0.001953125,0.986328125,0.0,0.18310546875,0.0,-10.663658119658336,-13.749401709401809,-2.405020757021248,1687593781.0474043
597,1,1,12,227,10,0.005859375,-0.00439453125,0.98974609375,-0.1220703125,-0.1220703125,-0.06103515625,-4.666100122100339,5.742661782661685,6.591316239315745,1687593781.0764122
598,1,1,12,237,10,0.00439453125,-0.0126953125,0.99853515625,-0.18310546875,-0.18310546875,-0.06103515625,-1.6673211233213436,-0.25489621489629144,17.087042735042246,1687593781.077457
599,1,1,12,247,10,0.01318359375,-0.01123046875,0.99072265625,-0.06103515625,-0.244140625,0.06103515625,-0.16793162393184247,1.2444932844932168,-2.405020757021248,1687593781.078413
600,1,1,12,257,10,0.01171875,-0.0244140625,0.9873046875,-0.18310546875,-0.1220703125,0.06103515625,-6.16548962148984,-1.7542857142857997,-8.402578754579281,1687593781.079412
601,1,1,12,267,10,0.00390625,-0.0166015625,0.98681640625,-0.06103515625,-0.1220703125,-0.06103515625,7.329015873015656,4.243272283272233,0.5937582417577119,1687593781.108413
602,1,1,12,277,10,0.00732421875,-0.00732421875,0.99462890625,-0.1220703125,-0.18310546875,0.0,-16.661216117216334,-9.251233211233284,8.090705738705196,1687593781.1104133
603,1,1,12,287,10,0.015625,-0.00341796875,0.99560546875,-0.06103515625,-0.3662109375,0.06103515625,-9.164268620268835,-10.750622710622793,-11.401357753358297,1687593781.1114395
604,1,1,12,297,10,0.01171875,-0.00390625,0.98291015625,-0.06103515625,-0.06103515625,0.06103515625,2.83084737484716,2.743882783882725,-0.9056312576317396,1687593781.146447
605,1,1,12,307,10,0.00048828125,-0.00537109375,0.99169921875,0.0,0.06103515625,-0.244140625,7.329015873015656,-6.252454212454268,-2.405020757021248,1687593781.1484191
606,1,1,12,317,10,0.0068359375,-0.0126953125,1.0107421875,0.1220703125,0.30517578125,-0.1220703125,-1.6673211233213436,-4.753064713064759,3.5925372405367284,1687593781.1494372
607,1,1,12,327,10,0.001953125,0.00341796875,1.01171875,0.1220703125,0.244140625,-0.06103515625,8.828405372405157,5.742661782661685,3.5925372405367284,1687593781.1633036
608,1,1,12,337,10,0.00830078125,0.0,1.0244140625,0.1220703125,0.30517578125,-0.18310546875,17.82474236874215,-1.7542857142857997,8.090705738705196,1687593781.1973019
609,1,1,12,347,10,0.00537109375,-0.00927734375,1.00830078125,0.0,0.30517578125,-0.06103515625,-3.1667106227108377,-1.7542857142857997,5.091926739926237,1687593781.2003012
610,1,1,12,357,10,0.00390625,-0.021484375,1.0126953125,0.18310546875,0.42724609375,0.18310546875,4.330236874236661,-13.749401709401809,-2.405020757021248,1687593781.2013013
611,1,1,12,367,10,0.00830078125,0.0009765625,1.0185546875,0.1220703125,0.42724609375,0.0,2.83084737484716,-7.751843711843776,-11.401357753358297,1687593781.2023017
612,1,1,12,377,10,0.005859375,-0.00732421875,1.0146484375,0.0,0.18310546875,0.0,2.83084737484716,-0.25489621489629144,-3.904410256410756,1687593781.203302
613,1,1,12,387,10,0.0009765625,-0.00146484375,1.0048828125,0.0,0.244140625,-0.06103515625,5.829626373626155,-10.750622710622793,-3.904410256410756,1687593781.2293103
614,1,1,12,397,10,0.0009765625,-0.01220703125,1.0048828125,0.1220703125,0.18310546875,-0.18310546875,4.330236874236661,-6.252454212454268,-2.405020757021248,1687593781.2313023
615,1,1,12,407,10,0.00732421875,-0.0107421875,1.00244140625,0.0,0.1220703125,0.0,7.329015873015656,4.243272283272233,-5.403799755800264,1687593781.2323024
616,1,1,12,417,10,0.0107421875,-0.01953125,0.9951171875,-0.1220703125,0.0,0.06103515625,-1.6673211233213436,5.742661782661685,-0.9056312576317396,1687593781.2333014
617,1,1,12,427,10,0.01171875,-0.0146484375,0.9873046875,-0.06103515625,-0.1220703125,0.06103515625,7.329015873015656,-9.251233211233284,-5.403799755800264,1687593781.265302
618,1,1,12,437,10,0.00537109375,-0.01123046875,0.986328125,-0.1220703125,-0.244140625,-0.06103515625,-10.663658119658336,-6.252454212454268,0.5937582417577119,1687593781.2663023
619,1,1,12,447,10,0.01611328125,-0.0048828125,0.9873046875,-0.1220703125,-0.42724609375,0.0,-12.163047619047838,-0.25489621489629144,3.5925372405367284,1687593781.290303
620,1,1,12,457,10,0.01171875,-0.01806640625,0.9833984375,-0.18310546875,-0.18310546875,0.0,-4.666100122100339,-0.25489621489629144,9.590095238094705,1687593781.2913024
621,1,1,12,467,10,0.009765625,-0.0126953125,0.99560546875,-0.06103515625,-0.18310546875,0.18310546875,-15.161826617826833,-4.753064713064759,-3.904410256410756,1687593781.2993026
622,1,1,12,477,10,-0.00048828125,-0.005859375,0.99072265625,-0.06103515625,-0.18310546875,0.0,-22.65877411477433,-0.25489621489629144,-11.401357753358297,1687593781.3013012
623,1,1,12,487,10,-0.001953125,-0.0078125,0.9970703125,0.0,0.0,-0.18310546875,-1.6673211233213436,-0.25489621489629144,-3.904410256410756,1687593781.310303
624,1,1,12,497,10,0.01513671875,-0.001953125,1.00244140625,-0.06103515625,0.0,0.0,2.83084737484716,-7.751843711843776,17.087042735042246,1687593781.3243015
625,1,1,12,507,10,-0.00048828125,-0.0068359375,0.990234375,0.06103515625,0.30517578125,-0.1220703125,-10.663658119658336,-13.749401709401809,-5.403799755800264,1687593781.3323019
626,1,1,12,517,10,0.00439453125,-0.0029296875,1.01123046875,0.1220703125,0.3662109375,0.0,-1.6673211233213436,-4.753064713064759,6.591316239315745,1687593781.338302
627,1,1,12,527,10,-0.00341796875,-0.0048828125,1.021484375,0.0,0.244140625,0.1220703125,-9.164268620268835,5.742661782661685,-17.398915750916217,1687593781.3523028
628,1,1,12,537,10,0.0029296875,-0.0009765625,1.0126953125,0.0,0.30517578125,0.0,-0.16793162393184247,-6.252454212454268,5.091926739926237,1687593781.3583038
629,1,1,12,547,10,0.00341796875,-0.01025390625,1.0244140625,0.06103515625,0.42724609375,0.0,-1.6673211233213436,-0.25489621489629144,-6.903189255189773,1687593781.3793013
630,1,1,12,557,10,-0.00830078125,-0.01708984375,1.03369140625,0.1220703125,0.42724609375,-0.06103515625,5.829626373626155,-10.750622710622793,-3.904410256410756,1687593781.3803027
631,1,1,12,567,10,0.00341796875,-0.0048828125,1.02197265625,0.06103515625,0.6103515625,0.1220703125,-4.666100122100339,-10.750622710622793,-17.398915750916217,1687593781.408302
632,1,1,12,577,10,-0.005859375,-0.0166015625,1.0126953125,0.1220703125,0.42724609375,0.244140625,-0.16793162393184247,-9.251233211233284,0.5937582417577119,1687593781.409302
633,1,1,12,587,10,0.00732421875,-0.00830078125,1.005859375,0.18310546875,0.42724609375,0.0,-9.164268620268835,2.743882783882725,-3.904410256410756,1687593781.4225008
634,1,1,12,597,10,0.00927734375,-0.01904296875,1.00927734375,0.1220703125,0.30517578125,0.30517578125,-15.161826617826833,-4.753064713064759,-6.903189255189773,1687593781.4245076
635,1,1,12,607,10,0.0029296875,-0.01513671875,1.00244140625,0.06103515625,0.18310546875,-0.1220703125,-9.164268620268835,-7.751843711843776,3.5925372405367284,1687593781.4295084
636,1,1,12,617,10,0.0078125,-0.0078125,1.01123046875,0.0,0.06103515625,0.0,-1.6673211233213436,5.742661782661685,-3.904410256410756,1687593781.4605083
637,1,1,12,627,10,0.00830078125,-0.0029296875,1.00146484375,-0.1220703125,-0.06103515625,0.0,14.825963369963155,-9.251233211233284,5.091926739926237,1687593781.4615085
638,1,1,12,637,10,-0.0009765625,-0.00732421875,0.9794921875,-0.06103515625,-0.1220703125,-0.1220703125,-1.6673211233213436,-10.750622710622793,-6.903189255189773,1687593781.468994
639,1,1,12,647,10,0.00732421875,-0.013671875,0.98681640625,-0.06103515625,-0.18310546875,-0.06103515625,-9.164268620268835,-10.750622710622793,12.588874236873721,1687593781.471002
640,1,1,12,657,10,0.0107421875,-0.02099609375,0.990234375,-0.1220703125,-0.06103515625,0.0,4.330236874236661,-1.7542857142857997,5.091926739926237,1687593781.495003
641,1,1,12,667,10,0.00146484375,-0.01025390625,0.96240234375,-0.18310546875,-0.244140625,-0.1220703125,4.330236874236661,-1.7542857142857997,-2.405020757021248,1687593781.4960027
642,1,1,12,677,10,0.0078125,-0.00927734375,0.98486328125,-0.18310546875,-0.06103515625,0.0,4.330236874236661,4.243272283272233,5.091926739926237,1687593781.5260012
643,1,1,12,687,10,0.0078125,-0.00244140625,0.99609375,-0.1220703125,-0.244140625,0.0,7.329015873015656,-1.7542857142857997,-5.403799755800264,1687593781.527712
644,1,1,12,697,10,0.00830078125,-0.01123046875,0.98974609375,-0.18310546875,0.0,0.18310546875,-4.666100122100339,5.742661782661685,3.5925372405367284,1687593781.5297205
645,1,1,12,707,10,-0.0029296875,-0.01025390625,0.9912109375,-0.06103515625,0.1220703125,0.1220703125,8.828405372405157,2.743882783882725,3.5925372405367284,1687593781.5417206
646,1,1,12,717,10,0.0048828125,-0.00048828125,1.00634765625,0.1220703125,0.0,-0.06103515625,-6.16548962148984,1.2444932844932168,-5.403799755800264,1687593781.555719
647,1,1,12,727,10,-0.00048828125,-0.009765625,1.005859375,0.1220703125,0.06103515625,0.06103515625,-0.16793162393184247,1.2444932844932168,8.090705738705196,1687593781.5647194
648,1,1,12,737,10,0.0,-0.01123046875,1.02294921875,0.06103515625,0.3662109375,-0.1220703125,-6.16548962148984,4.243272283272233,11.089484737484213,1687593781.5657194
649,1,1,12,747,10,0.0029296875,-0.00439453125,1.0029296875,0.1220703125,0.42724609375,-0.06103515625,5.829626373626155,-0.25489621489629144,9.590095238094705,1687593781.6037211
650,1,1,12,757,10,0.0,-0.00244140625,1.00341796875,0.1220703125,0.54931640625,0.0,-1.6673211233213436,-0.25489621489629144,-6.903189255189773,1687593781.6057193
651,1,1,12,767,10,-0.00537109375,-0.0126953125,1.025390625,0.1220703125,0.54931640625,0.06103515625,-4.666100122100339,2.743882783882725,-6.903189255189773,1687593781.6067197
652,1,1,12,777,10,0.0107421875,-0.01171875,1.01806640625,0.18310546875,0.18310546875,-0.06103515625,-16.661216117216334,4.243272283272233,-12.900747252747806,1687593781.6077194
653,1,1,12,787,10,0.00732421875,-0.01708984375,0.998046875,0.0,0.18310546875,-0.18310546875,2.83084737484716,-4.753064713064759,6.591316239315745,1687593781.6097198
654,1,1,12,797,10,0.00927734375,-0.013671875,0.99169921875,0.0,0.06103515625,0.0,13.326573870573654,-7.751843711843776,3.5925372405367284,1687593781.6527195
655,1,1,12,807,10,0.0068359375,-0.0107421875,1.009765625,-0.06103515625,0.0,0.0,2.83084737484716,-10.750622710622793,-3.904410256410756,1687593781.6537206
656,1,1,12,817,10,-0.00146484375,-0.00732421875,0.9970703125,0.0,-0.06103515625,-0.18310546875,7.329015873015656,4.243272283272233,8.090705738705196,1687593781.6547205
657,1,1,12,827,10,0.00048828125,-0.00927734375,0.9833984375,0.0,-0.244140625,-0.18310546875,14.825963369963155,-1.7542857142857997,-5.403799755800264,1687593781.6665578
658,1,1,12,837,10,-0.00146484375,0.00048828125,0.978515625,0.0,-0.3662109375,0.0,2.83084737484716,-4.753064713064759,6.591316239315745,1687593781.6745555
659,1,1,12,847,10,0.01611328125,-0.01318359375,0.978515625,-0.06103515625,-0.18310546875,0.244140625,7.329015873015656,1.2444932844932168,5.091926739926237,1687593781.6755571
660,1,1,12,857,10,0.01220703125,-0.005859375,0.982421875,-0.06103515625,-0.1220703125,0.0,-12.163047619047838,-10.750622710622793,-6.903189255189773,1687593781.694556
661,1,1,12,867,10,0.00390625,-0.0078125,0.97802734375,-0.1220703125,-0.18310546875,0.1220703125,-0.16793162393184247,4.243272283272233,5.091926739926237,1687593781.6955552
662,1,1,12,877,10,0.0126953125,-0.01025390625,0.9892578125,-0.1220703125,-0.244140625,0.0,8.828405372405157,2.743882783882725,9.590095238094705,1687593781.6975825
663,1,1,12,887,10,0.00439453125,-0.005859375,0.99072265625,-0.06103515625,0.0,-0.18310546875,5.829626373626155,-7.751843711843776,3.5925372405367284,1687593781.7085562
664,1,1,12,897,10,-0.00048828125,-0.00830078125,1.01025390625,0.18310546875,0.0,0.18310546875,10.327794871794651,-6.252454212454268,5.091926739926237,1687593781.7275565
665,1,1,12,907,10,0.001953125,-0.00390625,0.99609375,0.0,0.3662109375,-0.244140625,-3.1667106227108377,-19.746959706959785,-5.403799755800264,1687593781.7289705
666,1,1,12,917,10,0.00537109375,-0.00537109375,1.0,0.06103515625,0.18310546875,-0.06103515625,2.83084737484716,-7.751843711843776,-0.9056312576317396,1687593781.7429783
667,1,1,12,927,10,0.00732421875,-0.009765625,1.013671875,0.1220703125,0.18310546875,0.0,4.330236874236661,1.2444932844932168,-2.405020757021248,1687593781.7559776
668,1,1,12,937,10,0.0078125,-0.00830078125,1.0126953125,0.0,0.42724609375,0.1220703125,-1.6673211233213436,13.239609279609226,3.5925372405367284,1687593781.7589781
669,1,1,12,947,10,0.0029296875,-0.0107421875,1.00244140625,0.30517578125,0.42724609375,0.06103515625,-0.16793162393184247,1.2444932844932168,-5.403799755800264,1687593781.7789786
670,1,1,12,957,10,-0.0029296875,-0.0078125,1.01708984375,0.1220703125,0.54931640625,0.0,5.829626373626155,-4.753064713064759,-0.9056312576317396,1687593781.7799773
671,1,1,12,967,10,-0.00048828125,0.0009765625,1.0283203125,0.06103515625,0.54931640625,-0.1220703125,13.326573870573654,-0.25489621489629144,-3.904410256410756,1687593781.7819765
672,1,1,12,977,10,0.0009765625,-0.0029296875,1.0068359375,0.244140625,0.3662109375,0.0,-4.666100122100339,-10.750622710622793,6.591316239315745,1687593781.8099306
673,1,1,12,987,10,-0.00048828125,-0.009765625,0.998046875,0.18310546875,0.42724609375,0.06103515625,-4.666100122100339,2.743882783882725,-3.904410256410756,1687593781.8129294
674,1,1,12,997,10,0.01025390625,-0.0078125,0.98974609375,0.1220703125,0.42724609375,-0.1220703125,-3.1667106227108377,4.243272283272233,0.5937582417577119,1687593781.8359299
675,1,1,13,7,10,0.00439453125,-0.0087890625,1.00732421875,0.06103515625,0.18310546875,0.0,-4.666100122100339,-0.25489621489629144,-6.903189255189773,1687593781.8368742
676,1,1,13,17,10,0.00537109375,-0.0087890625,0.98974609375,-0.06103515625,0.0,-0.06103515625,8.828405372405157,-10.750622710622793,-14.400136752137314,1687593781.8418822
677,1,1,13,27,10,0.00439453125,-0.0107421875,0.990234375,0.0,0.0,0.0,-10.663658119658336,1.2444932844932168,0.5937582417577119,1687593781.8618834
678,1,1,13,37,10,0.00634765625,-0.00439453125,0.98681640625,0.0,-0.06103515625,-0.1220703125,-4.666100122100339,-4.753064713064759,-17.398915750916217,1687593781.8628807
679,1,1,13,47,10,0.0009765625,-0.01611328125,0.99462890625,-0.1220703125,-0.1220703125,0.1220703125,14.825963369963155,4.243272283272233,-2.405020757021248,1687593781.880907
680,1,1,13,57,10,-0.00244140625,-0.01318359375,0.98828125,-0.06103515625,-0.18310546875,0.0,13.326573870573654,2.743882783882725,-0.9056312576317396,1687593781.8818827
681,1,1,13,67,10,0.0,-0.00537109375,0.98583984375,-0.18310546875,-0.30517578125,0.0,-6.16548962148984,-9.251233211233284,0.5937582417577119,1687593781.9038827
682,1,1,13,77,10,0.01123046875,-0.01220703125,0.9921875,-0.1220703125,-0.18310546875,0.0,10.327794871794651,-1.7542857142857997,0.5937582417577119,1687593781.9049118
683,1,1,13,87,10,0.01123046875,-0.0078125,1.01611328125,-0.06103515625,0.0,-0.18310546875,4.330236874236661,4.243272283272233,8.090705738705196,1687593781.9198816
684,1,1,13,97,10,0.00048828125,-0.01953125,1.00244140625,0.06103515625,0.0,0.0,-9.164268620268835,2.743882783882725,-14.400136752137314,1687593781.920912
685,1,1,13,107,10,-0.00537109375,-0.00244140625,1.009765625,0.0,0.30517578125,-0.06103515625,-3.1667106227108377,-6.252454212454268,0.5937582417577119,1687593781.9278827
686,1,1,13,117,10,-0.0009765625,-0.00390625,1.009765625,-0.06103515625,0.1220703125,-0.1220703125,4.330236874236661,-24.245128205128253,5.091926739926237,1687593781.9607644
687,1,1,13,127,10,-0.0087890625,-0.0029296875,1.021484375,0.0,0.42724609375,-0.1220703125,-10.663658119658336,-1.7542857142857997,0.5937582417577119,1687593781.9627714
688,1,1,13,137,10,-0.00390625,-0.021484375,1.0068359375,0.0,0.42724609375,0.06103515625,4.330236874236661,-9.251233211233284,0.5937582417577119,1687593781.9793553
689,1,1,13,147,10,0.00537109375,-0.00390625,1.005859375,0.18310546875,0.30517578125,0.0,4.330236874236661,-1.7542857142857997,-8.402578754579281,1687593781.9813638
690,1,1,13,157,10,-0.00244140625,-0.009765625,0.99560546875,0.1220703125,0.42724609375,0.0,-0.16793162393184247,-6.252454212454268,-15.899526251526709,1687593782.019362
691,1,1,13,167,10,-0.0009765625,-0.0068359375,1.0087890625,0.06103515625,0.3662109375,0.0,-3.1667106227108377,4.243272283272233,-5.403799755800264,1687593782.0203638
692,1,1,13,177,10,0.0126953125,-0.00439453125,0.998046875,0.0,0.244140625,0.1220703125,4.330236874236661,-6.252454212454268,8.090705738705196,1687593782.0213637
693,1,1,13,187,10,0.01123046875,-0.017578125,1.00634765625,0.06103515625,0.244140625,-0.06103515625,7.329015873015656,1.2444932844932168,-2.405020757021248,1687593782.0223634
694,1,1,13,197,10,0.00146484375,-0.01123046875,1.0029296875,0.0,0.0,0.0,4.330236874236661,-6.252454212454268,11.089484737484213,1687593782.0233636
695,1,1,13,207,10,0.001953125,-0.01416015625,1.00146484375,-0.244140625,-0.06103515625,0.0,7.329015873015656,-13.749401709401809,-8.402578754579281,1687593782.0353642
696,1,1,13,217,10,0.0048828125,-0.01123046875,0.99658203125,-0.06103515625,-0.244140625,0.0,-0.16793162393184247,-9.251233211233284,-8.402578754579281,1687593782.0423641
697,1,1,13,227,10,0.009765625,-0.0048828125,0.98388671875,0.0,-0.1220703125,0.0,2.83084737484716,-0.25489621489629144,6.591316239315745,1687593782.0563622
698,1,1,13,237,10,0.00732421875,-0.0068359375,0.97998046875,-0.06103515625,0.0,0.06103515625,-15.161826617826833,-7.751843711843776,3.5925372405367284,1687593782.0573633
699,1,1,13,247,10,0.0068359375,-0.015625,0.9921875,0.0,-0.1220703125,-0.30517578125,7.329015873015656,-9.251233211233284,-2.405020757021248,1687593782.074364
700,1,1,13,257,10,0.0107421875,-0.0068359375,0.9921875,-0.18310546875,-0.244140625,-0.06103515625,-3.1667106227108377,-9.251233211233284,5.091926739926237,1687593782.096363
701,1,1,13,267,10,0.001953125,-0.00537109375,0.9892578125,-0.244140625,-0.06103515625,-0.06103515625,-3.1667106227108377,4.243272283272233,-8.402578754579281,1687593782.097364
702,1,1,13,277,10,0.0009765625,-0.00537109375,1.0009765625,0.0,0.0,-0.06103515625,-10.663658119658336,-6.252454212454268,-2.405020757021248,1687593782.1159742
703,1,1,13,287,10,0.0078125,-0.01220703125,1.0126953125,0.0,0.1220703125,0.1220703125,-0.16793162393184247,-1.7542857142857997,-18.898305250305725,1687593782.1169734
704,1,1,13,297,10,0.00146484375,-0.0029296875,1.00146484375,0.244140625,0.18310546875,0.0,-9.164268620268835,-18.247570207570277,-0.9056312576317396,1687593782.1210024
705,1,1,13,307,10,0.00537109375,-0.013671875,1.01318359375,0.0,0.48828125,0.0,-3.1667106227108377,4.243272283272233,-5.403799755800264,1687593782.1360018
706,1,1,13,317,10,0.00390625,-0.00244140625,1.00830078125,0.18310546875,0.3662109375,0.0,4.330236874236661,1.2444932844932168,0.5937582417577119,1687593782.1420069
707,1,1,13,327,10,0.0048828125,-0.01171875,1.013671875,0.0,0.48828125,-0.1220703125,5.829626373626155,-10.750622710622793,9.590095238094705,1687593782.1712797
708,1,1,13,337,10,0.0068359375,-0.01025390625,1.01123046875,-0.06103515625,0.42724609375,0.0,-6.16548962148984,-6.252454212454268,-2.405020757021248,1687593782.1732771
709,1,1,13,347,10,0.00439453125,-0.0087890625,1.01904296875,0.06103515625,0.30517578125,0.0,-6.16548962148984,-19.746959706959785,5.091926739926237,1687593782.1821876
710,1,1,13,357,10,0.00830078125,0.0,1.00927734375,0.1220703125,0.30517578125,0.0,2.83084737484716,-10.750622710622793,-6.903189255189773,1687593782.1901896
711,1,1,13,367,10,0.005859375,0.00146484375,1.01318359375,0.06103515625,0.3662109375,0.0,-0.16793162393184247,-9.251233211233284,-8.402578754579281,1687593782.2041888
712,1,1,13,377,10,0.009765625,-0.00146484375,1.01123046875,0.0,0.6103515625,-0.30517578125,-3.1667106227108377,-13.749401709401809,-5.403799755800264,1687593782.206188
713,1,1,13,387,10,-0.00537109375,-0.0146484375,0.990234375,0.0,0.18310546875,-0.1220703125,-4.666100122100339,-7.751843711843776,3.5925372405367284,1687593782.2101893
714,1,1,13,397,10,0.00927734375,-0.0107421875,1.0,0.1220703125,0.06103515625,0.0,-3.1667106227108377,1.2444932844932168,0.5937582417577119,1687593782.239187
715,1,1,13,407,10,0.00537109375,-0.01220703125,0.98974609375,0.0,0.0,0.06103515625,7.329015873015656,-9.251233211233284,-8.402578754579281,1687593782.2421887
716,1,1,13,417,10,0.009765625,-0.01025390625,0.986328125,-0.06103515625,-0.1220703125,0.18310546875,-9.164268620268835,-10.750622710622793,-3.904410256410756,1687593782.255189
717,1,1,13,427,10,0.009765625,-0.00732421875,0.9833984375,-0.1220703125,-0.1220703125,0.0,10.327794871794651,-9.251233211233284,11.089484737484213,1687593782.2561872
718,1,1,13,437,10,0.0087890625,-0.01708984375,1.01025390625,-0.18310546875,0.0,-0.06103515625,-6.16548962148984,1.2444932844932168,-2.405020757021248,1687593782.269187
719,1,1,13,447,10,-0.0009765625,-0.009765625,0.98388671875,-0.1220703125,-0.18310546875,0.18310546875,19.324131868131644,-0.25489621489629144,6.591316239315745,1687593782.2781873
